[RUN] MISSION type=1 hover=1230 sprintYaw=1700 target=18.30 kp=0.80 ki=0.00 kd=110.00 tofFull=1.60 tofZero=2.20
[FLT] ms,state,phase,alt,lowRel,tof,tofW,baro,cbaro,src,setpt,fV,usedV,bfV,derV,vsrc,desV,aErr,vErr,P,I,rawThr,thr,minThr,maxThr,sat,accX,accY,accZ,gyroX,gyroY,gyroZ,roll,pitch,yaw,cycle,sensors,rcThr,cmdYaw,rcArm,rcAngle,vbat,amps,diag,tofRaw,tofReadOk,tofReject,tofDt,tofStatus,tofI2c
[FLT] 21,2,sprint,0.000,0.000,-1.000,0,0.020,0.020,0,0.000,-0.299,-28,0,-15,2,0.000,0.000,0.000,0,0,1900,1900,1900,1900,0,43,5,520,-66,-47,75,2.7,-4.8,31,124,35,0,1700,0,0,12.4,0.35,15,0.000,0,0,0,255,0
[FLT] 86,2,sprint,-0.227,-0.227,-1.000,0,-0.010,-0.010,0,0.000,-0.102,0,0,0,2,0.000,0.000,0.000,0,0,1900,1900,1900,1900,0,43,5,520,-66,-47,75,2.7,-4.5,31,124,35,0,1700,0,0,12.4,0.35,15,0.000,0,7,43,2,0
[FLT] 151,2,sprint,-0.236,-0.236,-1.000,0,-0.030,-0.030,0,0.000,-0.035,0,0,0,2,0.000,0.000,0.000,0,0,1900,1900,1900,1900,0,43,5,520,-66,-47,75,2.7,-4.5,31,124,35,0,1700,0,0,12.4,0.35,15,0.000,0,7,44,2,0
[FLT] 216,2,sprint,-0.200,-0.200,-1.000,0,0.180,0.180,0,0.000,-0.009,1,14,0,2,0.000,0.000,0.000,0,0,1900,1900,1900,1900,0,43,5,520,-66,-47,75,2.7,-4.5,31,124,35,0,1700,0,0,12.1,13.77,15,0.000,0,2,44,2,0
[FLT] 281,2,sprint,-0.133,-0.133,-1.000,0,0.370,0.370,0,0.000,0.070,14,75,74,2,0.000,0.000,0.000,0,0,1900,1900,1900,1900,0,43,5,520,-66,-47,75,2.7,-4.5,31,124,35,0,1700,0,0,12.1,13.77,15,0.000,0,7,43,2,0
[FLT] 348,2,sprint,0.072,0.072,-1.000,0,0.850,0.850,0,0.000,0.272,47,224,74,2,0.000,0.000,0.000,0,0,1900,1900,1900,1900,0,85,1187,888,653,24,-2041,2.7,-4.5,31,124,35,0,1700,0,0,12.1,13.77,15,0.000,0,7,44,2,0
[FLT] 413,2,sprint,0.199,0.199,-1.000,0,1.060,1.060,0,0.000,0.495,65,294,74,2,0.000,0.000,0.000,0,0,1900,1900,1900,1900,0,85,1187,888,653,24,-2041,-1.0,-1.8,63,124,35,0,1700,0,0,12.1,13.77,15,0.000,0,7,44,2,0
[FLT] 479,2,sprint,0.457,0.457,-1.000,0,1.230,1.230,0,0.000,0.785,105,330,217,2,0.000,0.000,0.000,0,0,1900,1900,1900,1900,0,85,1187,888,653,24,-2041,-1.0,-1.8,63,125,35,0,1700,0,0,12.1,13.77,15,0.000,0,7,44,2,0
[FLT] 544,2,sprint,0.608,0.608,-1.000,0,1.520,1.520,0,0.000,1.067,126,354,217,2,0.000,0.000,0.000,0,0,1900,1900,1900,1900,0,85,1187,888,653,24,-2041,-1.0,-1.8,63,125,35,0,1700,0,0,11.5,23.02,15,0.000,0,7,44,2,0
[FLT] 610,2,sprint,0.892,0.892,-1.000,0,2.130,2.130,0,0.000,1.260,139,459,217,2,0.000,0.000,0.000,0,0,1900,1900,1900,1900,0,85,1187,888,653,24,-2041,-1.0,-1.8,63,125,35,0,1700,0,0,11.5,23.02,15,0.000,0,7,44,2,0
[FLT] 674,2,sprint,1.036,1.036,-1.000,0,2.260,2.260,0,0.000,1.376,145,492,217,2,0.000,0.000,0.000,0,0,1900,1900,1900,1900,0,58,298,760,-204,-327,-1603,-1.0,-1.8,63,125,35,0,1700,0,0,11.5,23.02,15,0.000,0,2,44,2,0
[FLT] 739,2,sprint,1.348,1.348,-1.000,0,2.540,2.540,0,0.000,1.547,170,449,341,2,0.000,0.000,0.000,0,0,1900,1900,1900,1900,0,58,298,760,-204,-327,-1603,1.1,-1.7,106,125,35,0,1700,0,0,11.5,23.02,15,0.000,0,7,43,4,0
[FLT] 804,2,sprint,1.525,1.525,-1.000,0,2.930,2.930,0,0.000,1.715,183,479,341,2,0.000,0.000,0.000,0,0,1900,1900,1900,1900,0,58,298,760,-204,-327,-1603,1.1,-1.7,106,125,35,0,1700,0,0,11.5,23.02,15,0.000,0,7,44,2,0
[FLT] 870,2,sprint,1.887,1.887,-1.000,0,3.350,3.350,0,0.000,1.898,205,536,341,2,0.000,0.000,0.000,0,0,1900,1900,1900,1900,0,58,298,760,-204,-327,-1603,1.1,-1.7,106,125,35,0,1700,0,0,11.2,24.17,15,0.000,0,7,44,2,0
[FLT] 935,2,sprint,2.062,2.062,-1.000,0,3.800,3.800,0,0.000,2.014,208,569,497,2,0.000,0.000,0.000,0,0,1900,1900,1900,1900,0,58,298,760,-204,-327,-1603,1.1,-1.7,106,125,35,0,1700,0,0,11.2,24.17,15,0.000,0,7,44,2,0
[FLT] 1002,2,sprint,2.431,2.431,-1.000,0,4.410,4.410,0,0.000,2.097,216,658,497,2,0.000,0.000,0.000,0,0,1900,1900,1900,1900,0,73,193,771,140,16,-1846,1.1,-1.7,106,125,35,0,1700,0,0,11.2,24.17,15,0.000,0,7,44,1,0
[FLT] 1067,2,sprint,2.632,2.632,-1.000,0,4.830,4.830,0,0.000,2.164,221,710,497,2,0.000,0.000,0.000,0,0,1900,1900,1900,1900,0,73,193,771,140,16,-1846,0.5,-0.5,144,125,35,0,1700,0,0,11.2,24.17,15,0.000,0,7,44,2,0
[FLT] 1133,2,sprint,3.037,3.037,-1.000,0,5.280,5.280,0,0.000,2.253,233,701,577,2,0.000,0.000,0.000,0,0,1900,1900,1900,1900,0,73,193,771,140,16,-1846,0.5,-0.5,144,125,35,0,1700,0,0,11.2,24.17,15,0.000,0,7,44,2,0
[FLT] 1198,2,sprint,3.248,3.248,-1.000,0,5.520,5.520,0,0.000,2.334,239,688,577,2,0.000,0.000,0.000,0,0,1900,1900,1900,1900,0,73,193,771,140,16,-1846,0.5,-0.5,144,125,35,0,1700,0,0,11.0,21.97,15,0.000,0,7,44,2,0
[FLT] 1264,2,sprint,3.671,3.671,-1.000,0,5.910,5.910,0,0.000,2.442,254,617,577,2,0.000,0.000,0.000,0,0,1900,1900,1900,1900,0,73,193,771,140,16,-1846,0.5,-0.5,144,125,35,0,1700,0,0,11.0,21.97,15,0.000,0,7,44,2,0
[FLT] 1329,2,sprint,3.899,3.899,-1.000,0,6.280,6.280,0,0.000,2.548,262,630,577,2,0.000,0.000,0.000,0,0,1900,1900,1900,1900,0,107,2593,629,-144,-279,-2214,0.5,-0.5,144,125,35,0,1700,0,0,11.0,21.97,15,0.000,0,7,44,2,0
[FLT] 1394,2,sprint,4.377,4.377,-1.000,0,6.890,6.890,0,0.000,2.692,282,672,586,2,0.000,0.000,0.000,0,0,1900,1900,1900,1900,0,107,2593,629,-144,-279,-2214,1.2,-0.8,186,125,35,0,1700,0,0,11.0,21.97,15,0.000,0,7,43,2,0
[FLT] 1459,2,sprint,4.632,4.632,-1.000,0,7.170,7.170,0,0.000,2.833,293,687,586,2,0.000,0.000,0.000,0,0,1900,1900,1900,1900,0,107,2593,629,-144,-279,-2214,1.2,-0.8,186,124,35,0,1700,0,0,11.0,21.97,15,0.000,0,7,44,2,0
[FLT] 1525,2,sprint,5.170,5.170,-1.000,0,7.780,7.780,0,0.000,3.014,317,717,586,2,0.000,0.000,0.000,0,0,1900,1900,1900,1900,0,107,2593,629,-144,-279,-2214,1.2,-0.8,186,124,35,0,1700,0,0,11.0,20.40,15,0.000,0,7,44,2,0
[FLT] 1590,2,sprint,5.441,5.441,-1.000,0,7.850,7.850,0,0.000,3.178,329,685,584,2,0.000,0.000,0.000,0,0,1900,1900,1900,1900,0,107,2593,629,-144,-279,-2214,1.2,-0.8,186,124,35,0,1700,0,0,11.0,20.40,15,0.000,0,7,44,2,0
[FLT] 1656,2,sprint,5.943,5.943,-1.000,0,7.750,7.750,0,0.000,3.347,348,477,584,2,0.000,0.000,0.000,0,0,1900,1900,1900,1900,0,158,-191,541,403,-595,-2351,1.2,-0.8,186,124,35,0,1700,0,0,11.0,20.40,15,0.000,0,7,44,1,0
[FLT] 1721,2,sprint,6.217,6.217,-1.000,0,7.850,7.850,0,0.000,3.511,363,389,584,2,0.000,0.000,0.000,0,0,1900,1900,1900,1900,0,158,-191,541,403,-595,-2351,2.7,-0.6,224,124,35,0,1700,0,0,11.0,20.40,15,0.000,0,7,44,2,0
[FLT] 1787,2,sprint,6.716,6.716,-1.000,0,8.450,8.450,0,0.000,3.668,378,406,445,2,0.000,0.000,0.000,0,0,1900,1900,1900,1900,0,158,-191,541,403,-595,-2351,2.7,-0.6,224,124,35,0,1700,0,0,11.0,20.40,15,0.000,0,7,44,2,0
[FLT] 1852,2,sprint,6.962,6.962,-1.000,0,8.600,8.600,0,0.000,3.773,384,421,445,2,0.000,0.000,0.000,0,0,1900,1900,1900,1900,0,158,-191,541,403,-595,-2351,2.7,-0.6,224,124,35,0,1700,0,0,10.9,20.82,15,0.000,0,7,44,2,0
[FLT] 1918,2,sprint,7.474,7.474,-1.000,0,9.250,9.250,0,0.000,3.888,399,500,445,2,0.000,0.000,0.000,0,0,1900,1900,1900,1900,0,158,-191,541,403,-595,-2351,2.7,-0.6,224,124,35,0,1700,0,0,10.9,20.82,15,0.000,0,7,44,2,0
[FLT] 1983,2,sprint,7.735,7.735,-1.000,0,9.410,9.410,0,0.000,3.919,406,521,445,2,0.000,0.000,0.000,0,0,1900,1900,1900,1900,0,70,2037,628,385,-322,-2006,2.7,-0.6,224,124,35,0,1700,0,0,10.9,20.82,15,0.000,0,7,44,2,0
[FLT] 2048,2,sprint,8.309,8.309,-1.000,0,10.500,10.500,0,0.000,3.919,425,694,550,2,0.000,0.000,0.000,0,0,1900,1900,1900,1900,0,70,2037,628,385,-322,-2006,1.1,0.3,267,124,35,0,1700,0,0,10.9,20.82,15,0.000,0,7,43,1,0
[FLT] 2113,2,sprint,8.614,8.614,-1.000,0,10.740,10.740,0,0.000,3.919,435,743,550,2,0.000,0.000,0.000,0,0,1900,1900,1900,1900,0,70,2037,628,385,-322,-2006,1.1,0.3,267,124,35,0,1700,0,0,10.9,20.82,15,0.000,0,7,44,2,0
[FLT] 2179,2,sprint,9.215,9.215,-1.000,0,11.160,11.160,0,0.000,3.919,454,709,550,2,0.000,0.000,0.000,0,0,1900,1900,1900,1900,0,70,2037,628,385,-322,-2006,1.1,0.3,267,124,35,0,1700,0,0,10.8,20.45,15,0.000,0,7,44,2,0
[FLT] 2244,2,sprint,9.531,9.531,-1.000,0,11.540,11.540,0,0.000,3.919,464,715,635,2,0.000,0.000,0.000,0,0,1900,1900,1900,1900,0,70,2037,628,385,-322,-2006,1.1,0.3,267,124,35,0,1700,0,0,10.8,20.45,15,0.000,0,7,44,2,0
[FLT] 2311,2,sprint,10.178,10.178,-1.000,0,12.180,12.180,0,0.000,3.919,485,753,635,2,0.000,0.000,0.000,0,0,1900,1900,1900,1900,0,26,133,721,-58,143,-1723,1.1,0.3,267,124,35,0,1700,0,0,10.8,20.45,15,0.000,0,7,44,2,0
[FLT] 2376,2,sprint,10.500,10.500,-1.000,0,12.310,12.310,0,0.000,3.919,495,728,635,2,0.000,0.000,0.000,0,0,1900,1900,1900,1900,0,26,133,721,-58,143,-1723,-0.9,1.5,307,124,35,0,1700,0,0,10.8,20.45,15,0.000,0,7,44,2,0
[FLT] 2442,2,sprint,11.138,11.138,-1.000,0,12.790,12.790,0,0.000,3.919,514,665,606,2,0.000,0.000,0.000,0,0,1900,1900,1900,1900,0,26,133,721,-58,143,-1723,-0.9,1.5,307,125,35,0,1700,0,0,10.8,20.45,15,0.000,0,7,44,2,0
[FLT] 2507,2,sprint,11.457,11.457,-1.000,0,12.990,12.990,0,0.000,3.919,522,638,606,2,0.000,0.000,0.000,0,0,1900,1900,1900,1900,0,26,133,721,-58,143,-1723,-0.9,1.5,307,125,35,0,1700,0,0,10.8,21.77,15,0.000,0,7,44,2,0
[FLT] 2573,2,sprint,12.104,12.104,-1.000,0,13.620,13.620,0,0.000,3.919,540,649,606,2,0.000,0.000,0.000,0,0,1900,1900,1900,1900,0,26,133,721,-58,143,-1723,-0.9,1.5,307,125,35,0,1700,0,0,10.8,21.77,15,0.000,0,7,44,2,0
[FLT] 23,8,landing,12.420,12.420,-1.000,0,13.720,13.720,0,12.104,0.000,547,623,606,2,-0.350,0.000,-0.350,-42,0,1160,1205,1000,1310,-1,99,370,469,479,-250,-2096,-0.9,1.5,307,125,35,0,1500,0,0,10.8,21.77,15,0.000,0,7,44,2,0
[FLT] 87,8,landing,12.747,12.747,-1.000,0,14.150,14.150,0,12.104,0.000,555,630,612,2,-0.350,0.000,-0.350,-42,0,1152,1151,1000,1310,0,99,370,469,479,-250,-2096,0.2,-0.2,347,125,35,0,1500,0,0,10.8,21.77,15,0.000,0,7,44,2,0
[FLT] 154,8,landing,13.393,13.393,-1.000,0,14.580,14.580,0,12.104,0.000,569,644,612,2,-0.350,0.000,-0.350,-42,0,1143,1143,1000,1310,0,99,370,469,479,-250,-2096,0.2,-0.2,347,124,35,0,1500,0,0,10.8,21.77,15,0.000,0,7,43,2,0
[FLT] 219,8,landing,13.695,13.695,-1.000,0,14.610,14.610,0,12.104,0.000,574,596,612,2,-0.350,0.000,-0.350,-42,0,1135,1135,1000,1310,0,99,370,469,479,-250,-2096,0.2,-0.2,347,124,35,0,1500,0,0,11.1,9.05,15,0.000,0,7,44,2,0
[FLT] 284,8,landing,14.260,14.260,-1.000,0,14.820,14.820,0,12.104,0.000,580,449,475,2,-0.350,0.000,-0.350,-42,0,1127,1126,1000,1310,0,99,370,469,479,-250,-2096,0.2,-0.2,347,124,35,0,1500,0,0,11.1,9.05,15,0.000,0,7,43,2,0
[FLT] 350,8,landing,14.524,14.524,-1.000,0,14.860,14.860,0,12.104,0.000,581,409,475,2,-0.350,0.000,-0.350,-42,0,1118,1118,1000,1310,0,-11,-34,28,468,888,-27,0.2,-0.2,347,124,35,0,1500,0,0,11.1,9.05,15,0.000,0,7,44,2,0
[FLT] 416,8,landing,14.482,14.482,-1.000,0,14.840,14.840,0,12.104,0.000,487,256,475,2,-0.350,0.000,-0.350,-42,0,1110,1109,1000,1310,0,-11,-34,28,468,888,-27,-3.2,1.7,348,124,35,0,1500,0,0,11.1,9.05,15,0.000,0,7,43,1,0
[FLT] 481,8,landing,14.489,14.489,-1.000,0,14.940,14.940,0,12.104,0.000,448,220,475,2,-0.350,0.000,-0.350,-42,0,1102,1101,1000,1310,0,-11,-34,28,468,888,-27,-3.2,1.7,348,124,35,0,1500,0,0,11.1,9.05,15,0.000,0,7,44,2,0
[FLT] 547,8,landing,14.494,14.494,-1.000,0,14.960,14.960,0,12.104,3.008,376,167,298,2,-0.350,0.000,-4.110,-493,0,642,1071,1000,1310,-1,-11,-34,28,468,888,-27,-3.2,1.7,348,124,35,0,1500,0,0,11.5,2.22,15,0.000,0,7,43,2,0
[FLT] 612,8,landing,14.521,14.521,-1.000,0,14.950,14.950,0,12.104,3.363,348,128,298,2,-0.350,0.000,-3.830,-459,0,668,1000,1000,1310,-1,-11,-34,28,468,888,-27,-3.2,1.7,348,124,35,0,1500,0,0,11.5,2.22,15,0.000,0,7,44,255,4
[FLT] 679,8,landing,14.598,14.598,-1.000,0,14.980,14.980,0,12.104,3.201,300,77,298,2,-0.350,0.000,-3.350,-402,0,716,1000,1000,1310,-1,18,-44,-26,23,-964,383,-3.2,1.7,348,124,35,0,1500,0,0,11.5,2.22,15,0.000,0,7,44,1,0
[FLT] 743,8,landing,14.632,14.632,-1.000,0,15.090,15.090,0,12.104,2.946,276,78,182,2,-0.350,0.000,-3.110,-373,0,737,1000,1000,1310,-1,18,-44,-26,23,-964,383,0.5,-5.0,346,124,35,0,1500,0,0,11.5,2.22,15,0.000,0,7,44,2,0
[FLT] 810,8,landing,14.711,14.711,-1.000,0,15.010,15.010,0,12.104,2.638,238,57,182,2,-0.350,0.000,-2.730,-327,0,775,1000,1000,1310,-1,18,-44,-26,23,-964,383,0.5,-5.0,346,125,35,0,1500,0,0,11.5,2.22,15,0.000,0,7,43,2,0
[FLT] 875,8,landing,14.740,14.740,-1.000,0,14.950,14.950,0,12.104,2.368,219,29,182,2,-0.350,0.000,-2.540,-304,0,789,1000,1000,1310,-1,18,-44,-26,23,-964,383,0.5,-5.0,346,125,35,0,1500,0,0,11.8,0.72,15,0.000,0,7,44,2,0
[FLT] 940,8,landing,14.755,14.755,-1.000,0,14.830,14.830,0,12.104,2.055,177,-27,46,2,-0.350,0.000,-2.120,-254,0,836,1000,1000,1310,-1,18,-44,-26,23,-964,383,0.5,-5.0,346,125,35,0,1500,0,0,11.8,0.72,15,0.000,0,7,43,2,0
[FLT] 1006,8,landing,14.747,14.747,-1.000,0,14.800,14.800,0,12.104,1.751,155,-42,46,2,-0.350,0.000,-1.900,-228,0,862,1000,1000,1310,-1,12,-1,101,-63,-3,201,0.5,-5.0,346,125,35,0,1500,0,0,11.8,0.72,15,0.000,0,7,44,2,0
[FLT] 1072,8,landing,14.717,14.717,-1.000,0,14.660,14.660,0,12.104,1.419,114,-79,46,2,-0.350,0.000,-1.490,-178,0,912,1000,1000,1310,-1,12,-1,101,-63,-3,201,-4.5,-10.6,342,125,35,0,1500,0,0,11.8,0.72,15,0.000,0,7,43,1,0
[FLT] 1137,8,landing,14.692,14.692,-1.000,0,14.570,14.570,0,12.104,1.135,95,-100,46,2,-0.350,0.000,-1.300,-156,0,934,1000,1000,1310,-1,12,-1,101,-63,-3,201,-4.5,-10.6,342,124,35,0,1500,0,0,11.8,0.72,15,0.000,0,7,44,2,0
[FLT] 1203,8,landing,14.601,14.601,-1.000,0,14.380,14.380,0,12.104,0.810,53,-137,-42,2,-0.350,0.000,-0.880,-105,0,985,1000,1000,1310,-1,12,-1,101,-63,-3,201,-4.5,-10.6,342,124,35,0,1500,0,0,11.9,0.42,15,0.000,0,7,43,2,0
[FLT] 1268,8,landing,14.544,14.544,-1.000,0,14.250,14.250,0,12.104,0.520,33,-164,-42,2,-0.350,0.000,-0.680,-81,0,1009,1009,1000,1310,0,12,-1,101,-63,-3,201,-4.5,-10.6,342,124,35,0,1500,0,0,11.9,0.42,15,0.000,0,7,44,2,0
[FLT] 1335,8,landing,14.391,14.391,-1.000,0,13.890,13.890,0,12.104,0.193,-8,-237,-42,2,-0.350,0.000,-0.270,-32,0,1058,1058,1000,1310,0,33,-22,335,-363,903,13,-4.5,-10.6,342,124,35,0,1500,0,0,11.9,0.42,15,0.000,0,7,44,2,0
[FLT] 1399,8,landing,14.275,14.275,-1.000,0,13.680,13.680,0,12.104,-0.135,-37,-285,-191,2,-0.350,0.000,0.020,2,0,1092,1092,1000,1310,0,33,-22,335,-363,903,13,-2.1,-1.3,342,124,35,0,1500,0,0,11.9,0.42,15,0.000,0,7,44,2,0
[FLT] 1464,8,landing,14.146,14.146,-1.000,0,13.490,13.490,0,12.104,-0.475,-65,-325,-191,2,-0.350,0.000,0.300,35,0,1125,1125,1000,1310,0,33,-22,335,-363,903,13,-2.1,-1.3,342,125,35,0,1500,0,0,11.9,0.42,15,0.000,0,7,44,2,0
[FLT] 1528,8,landing,13.862,13.862,-1.000,0,13.120,13.120,0,12.104,-0.922,-122,-379,-191,2,-0.350,0.000,0.870,104,0,1194,1194,1000,1310,0,33,-22,335,-363,903,13,-2.1,-1.3,342,125,35,0,1500,0,0,12.0,2.12,15,0.000,0,2,22,2,0
[FLT] 1593,8,landing,13.595,13.595,-1.000,0,12.770,12.770,0,12.104,-1.299,-153,-410,-295,2,-0.350,0.000,1.180,141,0,1231,1231,1000,1310,0,33,-22,335,-363,903,13,-2.1,-1.3,342,125,35,0,1500,0,0,12.0,2.12,15,0.000,0,7,43,2,0
[FLT] 1659,8,landing,13.426,13.426,-1.000,0,12.780,12.780,0,12.104,-1.587,-179,-394,-295,2,-0.350,0.000,1.440,172,0,1262,1262,1000,1310,0,16,-24,610,-1456,1191,157,-2.1,-1.3,342,125,35,0,1500,0,0,12.0,2.12,15,0.000,0,7,44,2,0
[FLT] 1725,8,landing,13.242,13.242,-1.000,0,13.550,13.550,0,12.104,-1.778,-185,-78,-295,2,-0.350,0.000,1.500,180,0,1270,1270,1000,1310,0,16,-24,610,-1456,1191,157,3.3,0.3,343,125,35,0,1500,0,0,12.0,2.12,15,0.000,0,7,43,2,0
[FLT] 1790,8,landing,13.185,13.185,-1.000,0,13.270,13.270,0,12.104,-1.779,-176,-7,-295,2,-0.350,0.000,1.410,169,0,1259,1259,1000,1310,0,16,-24,610,-1456,1191,157,3.3,0.3,343,124,35,0,1500,0,0,12.0,2.12,15,0.000,0,7,44,2,0
[FLT] 1856,8,landing,13.058,13.058,-1.000,0,12.850,12.850,0,12.104,-1.685,-161,-120,-129,2,-0.350,0.000,1.260,151,0,1241,1241,1000,1310,0,16,-24,610,-1456,1191,157,3.3,0.3,343,124,35,0,1500,0,0,12.0,2.95,15,0.000,0,7,43,2,0
[FLT] 1921,8,landing,12.987,12.987,-1.000,0,12.860,12.860,0,12.104,-1.620,-158,-130,-129,2,-0.350,0.000,1.230,147,0,1237,1237,1000,1310,0,16,-24,610,-1456,1191,157,3.3,0.3,343,124,35,0,1500,0,0,12.0,2.95,15,0.000,0,7,44,2,0
[FLT] 1988,8,landing,12.815,12.815,-1.000,0,12.430,12.430,0,12.104,-1.596,-160,-204,-129,2,-0.350,0.000,1.250,150,0,1240,1240,1000,1310,0,23,1,825,-698,-319,275,3.3,0.3,343,124,35,0,1500,0,0,12.0,2.95,15,0.000,0,7,44,2,0
[FLT] 2052,8,landing,12.683,12.683,-1.000,0,12.110,12.110,0,12.104,-1.665,-173,-289,-239,2,-0.350,0.000,1.380,165,0,1255,1255,1000,1310,0,23,1,825,-698,-319,275,-9.2,-4.2,344,124,35,0,1500,0,0,12.0,2.95,15,0.000,0,7,44,2,0
[FLT] 2118,8,landing,12.437,12.437,-1.000,0,12.130,12.130,0,12.104,-1.819,-194,-261,-239,2,-0.350,0.000,1.590,190,0,1280,1280,1000,1310,0,23,1,825,-698,-319,275,-9.2,-4.2,344,124,35,0,1500,0,0,12.0,2.95,15,0.000,0,7,43,4,0
[FLT] 2184,8,landing,12.298,12.298,-1.000,0,11.700,11.700,0,12.104,-1.956,-205,-304,-239,2,-0.350,0.000,1.700,203,0,1293,1293,1000,1310,0,23,1,825,-698,-319,275,-9.2,-4.2,344,124,35,0,1500,0,0,12.0,3.67,15,0.000,0,7,44,2,0
[FLT] 2249,8,landing,12.002,12.002,-1.000,0,11.260,11.260,0,12.104,-2.136,-225,-431,-307,2,-0.350,0.000,1.900,228,0,1318,1310,1000,1310,1,23,1,825,-698,-319,275,-9.2,-4.2,344,124,35,0,1500,0,0,12.0,3.67,15,0.000,0,7,43,2,0
[FLT] 2315,8,landing,11.867,11.867,-1.000,0,11.220,11.220,0,12.104,-2.238,-230,-431,-307,2,-0.350,0.000,1.950,233,0,1323,1310,1000,1310,1,21,30,624,387,596,-312,-9.2,-4.2,344,124,35,0,1500,0,0,12.0,3.67,15,0.000,0,7,44,2,0
[FLT] 2381,8,landing,11.547,11.547,-1.000,0,11.120,11.120,0,12.104,-2.415,-256,-330,-307,2,-0.350,0.000,2.210,265,0,1355,1310,1000,1310,1,21,30,624,387,596,-312,0.8,-2.5,345,124,35,0,1500,0,0,12.0,3.67,15,0.000,0,7,43,2,0
[FLT] 2446,8,landing,11.392,11.392,-1.000,0,10.920,10.920,0,12.104,-2.553,-264,-322,-307,2,-0.350,0.000,2.290,274,0,1364,1310,1000,1310,1,21,30,624,387,596,-312,0.8,-2.5,345,124,35,0,1500,0,0,12.0,3.67,15,0.000,0,7,44,2,0
[FLT] 2512,8,landing,11.082,11.082,-1.000,0,10.530,10.530,0,12.104,-2.671,-277,-347,-271,2,-0.350,0.000,2.420,290,0,1380,1310,1000,1310,1,21,30,624,387,596,-312,0.8,-2.5,345,124,35,0,1500,0,0,11.9,5.97,15,0.000,0,7,43,2,0
[FLT] 2577,8,landing,10.908,10.908,-1.000,0,10.220,10.220,0,12.104,-2.789,-287,-389,-271,2,-0.350,0.000,2.520,302,0,1392,1310,1000,1310,1,21,30,624,387,596,-312,0.8,-2.5,345,124,35,0,1500,0,0,11.9,5.97,15,0.000,0,7,44,2,0
[FLT] 2644,8,landing,10.590,10.590,-1.000,0,9.430,9.430,0,12.104,-2.849,-289,-547,-271,2,-0.350,0.000,2.540,304,0,1394,1310,1000,1310,1,-15,14,852,598,-453,-82,0.8,-2.5,345,124,35,0,1500,0,0,11.9,5.97,15,0.000,0,7,44,2,0
[FLT] 2708,8,landing,10.415,10.415,-1.000,0,8.980,8.980,0,12.104,-2.886,-291,-638,-515,2,-0.350,0.000,2.560,307,0,1397,1310,1000,1310,1,-15,14,852,598,-453,-82,4.2,-2.2,346,124,35,0,1500,0,0,11.9,5.97,15,0.000,0,7,44,2,0
[FLT] 2773,8,landing,10.040,10.040,-1.000,0,8.130,8.130,0,12.104,-2.941,-299,-798,-515,2,-0.350,0.000,2.640,316,0,1406,1310,1000,1310,1,-15,14,852,598,-453,-82,4.2,-2.2,346,124,35,0,1500,0,0,11.9,5.97,15,0.000,0,7,43,2,0
[FLT] 2839,8,landing,9.843,9.843,-1.000,0,7.920,7.920,0,12.104,-2.994,-303,-811,-515,2,-0.350,0.000,2.680,321,0,1411,1310,1000,1310,1,-15,14,852,598,-453,-82,4.2,-2.2,346,124,35,0,1500,0,0,11.8,6.10,15,0.000,0,7,44,2,0
[FLT] 2904,8,landing,9.435,9.435,-1.000,0,7.490,7.490,0,12.104,-3.073,-314,-750,-592,2,-0.350,0.000,2.790,334,0,1424,1310,1000,1310,1,-15,14,852,598,-453,-82,4.2,-2.2,346,124,35,0,1500,0,0,11.8,6.10,15,0.000,0,7,43,2,0
[FLT] 2970,8,landing,9.225,9.225,-1.000,0,7.370,7.370,0,12.104,-3.149,-320,-709,-592,2,-0.350,0.000,2.850,342,0,1432,1310,1000,1310,1,143,56,473,-1273,-834,183,4.2,-2.2,346,124,35,0,1500,0,0,11.8,6.10,15,0.000,0,7,44,2,0
[FLT] 3036,8,landing,8.812,8.812,-1.000,0,7.360,7.360,0,12.104,-3.237,-331,-515,-592,2,-0.350,0.000,2.960,355,0,1445,1310,1000,1310,1,143,56,473,-1273,-834,183,-5.9,0.8,342,124,35,0,1500,0,0,11.8,6.10,15,0.000,0,7,43,2,0
[FLT] 3100,8,landing,8.576,8.576,-1.000,0,7.420,7.420,0,12.104,-3.357,-345,-398,-592,2,-0.350,0.000,3.100,372,0,1462,1310,1000,1310,1,143,56,473,-1273,-834,183,-5.9,0.8,342,124,35,0,1500,0,0,11.8,6.10,15,0.000,0,7,44,2,0
[FLT] 3166,8,landing,8.310,8.310,-1.000,0,7.540,7.540,0,12.104,-3.343,-326,-194,-329,2,-0.350,0.000,2.910,349,0,1439,1310,1000,1310,1,143,56,473,-1273,-834,183,-5.9,0.8,342,124,35,0,1500,0,0,11.8,6.87,15,0.000,0,7,43,2,0
[FLT] 3231,8,landing,8.230,8.230,-1.000,0,7.630,7.630,0,12.104,-3.184,-306,-111,-329,2,-0.350,0.000,2.710,325,0,1415,1310,1000,1310,1,143,56,473,-1273,-834,183,-5.9,0.8,342,124,35,0,1500,0,0,11.8,6.87,15,0.000,0,7,44,2,0
[FLT] 3298,8,landing,8.099,8.099,-1.000,0,7.390,7.390,0,12.104,-2.894,-265,-44,-329,2,-0.350,0.000,2.300,276,0,1366,1310,1000,1310,1,57,0,641,513,109,225,-5.9,0.8,342,124,35,0,1500,0,0,11.8,6.87,15,0.000,0,7,44,2,0
[FLT] 3362,8,landing,7.996,7.996,-1.000,0,7.080,7.080,0,12.104,-2.677,-254,-121,-261,2,-0.350,0.000,2.190,262,0,1352,1310,1000,1310,1,57,0,641,513,109,225,2.9,-4.3,345,124,35,0,1500,0,0,11.8,6.87,15,0.000,0,7,44,2,0
[FLT] 3428,8,landing,7.701,7.701,-1.000,0,6.640,6.640,0,12.104,-2.588,-257,-281,-261,2,-0.350,0.000,2.220,266,0,1356,1310,1000,1310,1,57,0,641,513,109,225,2.9,-4.3,345,125,35,0,1500,0,0,11.8,6.87,15,0.000,0,7,43,2,0
[FLT] 3494,8,landing,7.532,7.532,-1.000,0,6.520,6.520,0,12.104,-2.607,-263,-312,-261,2,-0.350,0.000,2.280,273,0,1363,1310,1000,1310,1,57,0,641,513,109,225,2.9,-4.3,345,125,35,0,1500,0,0,11.9,4.42,15,0.000,0,7,44,2,0
[FLT] 3559,8,landing,7.196,7.196,-1.000,0,6.360,6.360,0,12.104,-2.687,-276,-316,-292,2,-0.350,0.000,2.410,289,0,1379,1310,1000,1310,1,57,0,641,513,109,225,2.9,-4.3,345,125,35,0,1500,0,0,11.9,4.42,15,0.000,0,7,43,2,0
[FLT] 3625,8,landing,7.035,7.035,-1.000,0,6.280,6.280,0,12.104,-2.756,-280,-303,-292,2,-0.350,0.000,2.450,294,0,1384,1310,1000,1310,1,123,-47,422,-156,112,171,2.9,-4.3,345,125,35,0,1500,0,0,11.9,4.42,15,0.000,0,7,44,4,0
[FLT] 3691,8,landing,6.742,6.742,-1.000,0,6.160,6.160,0,12.104,-2.795,-281,-252,-292,2,-0.350,0.000,2.460,295,0,1385,1310,1000,1310,1,45,-8,482,-1830,-1571,-387,2.9,-4.3,345,125,35,0,1500,0,0,11.9,4.42,15,0.000,0,7,43,1,0
[FLT] 3755,8,landing,6.613,6.613,-1.000,0,6.150,6.150,0,12.104,-2.790,-278,-219,-292,2,-0.350,0.000,2.430,291,0,1381,1310,1000,1310,1,45,-8,482,-1830,-1571,-387,-7.2,-0.2,342,125,35,0,1500,0,0,11.9,4.42,15,0.000,0,7,44,2,0
[FLT] 3819,8,landing,6.514,6.514,-1.000,0,6.210,6.210,0,12.104,-2.711,-267,-174,-191,2,-0.350,0.000,2.320,278,0,1368,1310,1000,1310,1,45,-8,482,-1830,-1571,-387,-7.2,-0.2,342,125,35,0,1500,0,0,11.9,4.42,15,0.000,0,7,43,2,0
[FLT] 3884,8,landing,6.367,6.367,-1.000,0,6.180,6.180,0,12.104,-2.503,-236,-82,-191,2,-0.350,0.000,2.010,241,0,1331,1310,1000,1310,1,45,-8,482,-1830,-1571,-387,-7.2,-0.2,342,125,35,0,1500,0,0,11.9,4.25,15,0.000,0,2,23,2,0
[FLT] 3951,8,landing,6.187,6.187,-1.000,0,5.740,5.740,0,12.104,-2.319,-220,-161,-191,2,-0.350,0.000,1.850,222,0,1312,1310,1000,1310,1,45,-8,482,-1830,-1571,-387,-7.2,-0.2,342,125,35,0,1500,0,0,11.9,4.25,15,0.000,0,7,44,2,0
[FLT] 4015,8,landing,6.068,6.068,-1.000,0,5.570,5.570,0,12.104,-2.246,-221,-217,-238,2,-0.350,0.000,1.860,223,0,1313,1310,1000,1310,1,6,-31,456,-177,83,212,-7.2,-0.2,342,125,35,0,1500,0,0,11.9,4.25,15,0.000,0,7,44,1,0
[FLT] 4081,8,landing,5.824,5.824,-1.000,0,5.440,5.440,0,12.104,-2.258,-228,-250,-238,2,-0.350,0.000,1.930,231,0,1321,1310,1000,1310,1,6,-31,456,-177,83,212,3.6,1.7,340,125,35,0,1500,0,0,11.9,4.25,15,0.000,0,7,42,2,0
[FLT] 4146,8,landing,5.705,5.705,-1.000,0,5.380,5.380,0,12.104,-2.278,-229,-235,-238,2,-0.350,0.000,1.940,232,0,1322,1310,1000,1310,1,6,-31,456,-177,83,212,3.6,1.7,340,125,35,0,1500,0,0,11.9,4.25,15,0.000,0,7,44,2,0
[FLT] 4211,8,landing,5.505,5.505,-1.000,0,5.370,5.370,0,12.104,-2.264,-223,-176,-172,2,-0.350,0.000,1.880,225,0,1315,1310,1000,1310,1,6,-31,456,-177,83,212,3.6,1.7,340,125,35,0,1500,0,0,11.9,3.50,15,0.000,0,7,43,2,0
[FLT] 4277,8,landing,5.422,5.422,-1.000,0,5.340,5.340,0,12.104,-2.206,-216,-148,-172,2,-0.350,0.000,1.810,217,0,1307,1307,1000,1310,0,6,-31,456,-177,83,212,3.6,1.7,340,125,35,0,1500,0,0,11.9,3.50,15,0.000,0,7,44,2,0
[FLT] 4343,8,landing,5.252,5.252,-1.000,0,5.060,5.060,0,12.104,-2.113,-204,-161,-172,2,-0.350,0.000,1.690,202,0,1292,1292,1000,1310,0,95,137,431,1554,-1246,-33,3.6,1.7,340,125,35,0,1500,0,0,11.9,3.50,15,0.000,0,7,43,2,0
[FLT] 4407,8,landing,5.161,5.161,-1.000,0,4.980,4.980,0,12.104,-2.055,-202,-177,-172,2,-0.350,0.000,1.670,200,0,1290,1290,1000,1310,0,95,137,431,1554,-1246,-33,1.5,-8.3,340,125,35,0,1500,0,0,11.9,3.50,15,0.000,0,7,44,2,0
[FLT] 4473,8,landing,4.971,4.971,-1.000,0,4.800,4.800,0,12.104,-2.025,-201,-197,-196,2,-0.350,0.000,1.660,199,0,1289,1289,1000,1310,0,95,137,431,1554,-1246,-33,1.5,-8.3,340,124,35,0,1500,0,0,11.9,3.50,15,0.000,0,7,43,2,0
[FLT] 4537,8,landing,4.874,4.874,-1.000,0,4.750,4.750,0,12.104,-2.015,-201,-197,-196,2,-0.350,0.000,1.660,199,0,1289,1289,1000,1310,0,95,137,431,1554,-1246,-33,1.5,-8.3,340,124,35,0,1500,0,0,11.9,4.12,15,0.000,0,7,44,2,0
[FLT] 4604,8,landing,4.679,4.679,-1.000,0,4.480,4.480,0,12.104,-2.012,-201,-209,-196,2,-0.350,0.000,1.660,199,0,1289,1289,1000,1310,0,95,137,431,1554,-1246,-33,1.5,-8.3,340,124,35,0,1500,0,0,11.9,4.12,15,0.000,0,7,44,1,0
[FLT] 4669,8,landing,4.570,4.570,-1.000,0,4.350,4.350,0,12.104,-2.031,-205,-230,-217,2,-0.350,0.000,1.700,203,0,1293,1293,1000,1310,0,31,-78,490,-2195,-1114,330,1.5,-8.3,340,124,35,0,1500,0,0,11.9,4.12,15,0.000,0,7,44,2,0
[FLT] 4736,8,landing,4.325,4.325,-1.000,0,4.000,4.000,0,12.104,-2.098,-217,-289,-217,2,-0.350,0.000,1.820,218,0,1308,1308,1000,1310,0,31,-78,490,-2195,-1114,330,-3.0,1.1,341,124,35,0,1500,0,0,11.9,4.12,15,0.000,0,7,43,2,0
[FLT] 4801,8,landing,4.198,4.198,-1.000,0,3.910,3.910,0,12.104,-2.177,-223,-297,-217,2,-0.350,0.000,1.880,225,0,1315,1310,1000,1310,1,31,-78,490,-2195,-1114,330,-3.0,1.1,341,125,35,0,1500,0,0,11.9,4.12,15,0.000,0,7,44,2,0
[FLT] 4867,8,landing,3.944,3.944,-1.000,0,3.710,3.710,0,12.104,-2.270,-235,-290,-250,2,-0.350,0.000,2.000,239,0,1329,1310,1000,1310,1,31,-78,490,-2195,-1114,330,-3.0,1.1,341,125,35,0,1500,0,0,11.9,6.30,15,0.000,0,7,43,2,0
[FLT] 4932,8,landing,3.821,3.821,-1.000,0,3.680,3.680,0,12.104,-2.339,-238,-271,-250,2,-0.350,0.000,2.030,243,0,1333,1310,1000,1310,1,31,-78,490,-2195,-1114,330,-3.0,1.1,341,125,35,0,1500,0,0,11.9,6.30,15,0.000,0,7,44,2,0
[FLT] 4998,8,landing,3.607,3.607,-1.000,0,3.590,3.590,0,12.104,-2.366,-237,-204,-250,2,-0.350,0.000,2.020,242,0,1332,1310,1000,1310,1,70,50,846,240,-47,-42,-3.0,1.1,341,125,35,0,1500,0,0,11.9,6.30,15,0.000,0,7,43,2,0
[FLT] 5062,8,landing,3.502,3.502,-1.000,0,3.480,3.480,0,12.104,-2.359,-235,-203,-250,2,-0.350,0.000,2.000,239,0,1329,1310,1000,1310,1,70,50,846,240,-47,-42,-1.3,-7.0,342,125,35,0,1500,0,0,11.9,6.30,15,0.000,0,7,44,2,0
[FLT] 5128,8,landing,3.330,3.330,-1.000,0,3.410,3.410,0,12.104,-2.302,-224,-165,-189,2,-0.350,0.000,1.890,226,0,1316,1310,1000,1310,1,70,50,846,240,-47,-42,-1.3,-7.0,342,124,35,0,1500,0,0,11.9,6.30,15,0.000,0,7,43,2,0
[FLT] 5192,8,landing,3.246,3.246,-1.000,0,3.320,3.320,0,12.104,-2.230,-218,-162,-189,2,-0.350,0.000,1.830,219,0,1309,1309,1000,1310,0,70,50,846,240,-47,-42,-1.3,-7.0,342,124,35,0,1500,0,0,11.8,5.60,15,0.000,0,7,44,2,0
[FLT] 5259,8,landing,3.058,3.058,-1.000,0,2.980,2.980,0,12.104,-2.170,-214,-216,-189,2,-0.350,0.000,1.790,214,0,1304,1304,1000,1310,0,70,50,846,240,-47,-42,-1.3,-7.0,342,124,35,0,1500,0,0,11.8,5.60,15,0.000,0,7,44,2,0
[FLT] 5323,8,landing,2.950,2.950,-1.000,0,2.880,2.880,0,12.104,-2.160,-216,-232,-224,2,-0.350,0.000,1.810,217,0,1307,1307,1000,1310,0,3,15,510,-2143,867,-129,-1.3,-7.0,342,124,35,0,1500,0,0,11.8,5.60,15,0.000,0,7,44,7,0
[FLT] 5390,8,landing,2.732,2.732,-1.000,0,2.710,2.710,0,12.104,-2.186,-221,-245,-224,2,-0.350,0.000,1.860,223,0,1313,1310,1000,1310,1,3,15,510,-2143,867,-129,-8.1,5.6,338,124,35,0,1500,0,0,11.8,5.60,15,0.000,0,7,43,1,0
[FLT] 5455,8,landing,2.629,2.629,-1.000,0,2.670,2.670,0,12.104,-2.207,-222,-227,-224,2,-0.350,0.000,1.870,224,0,1314,1310,1000,1310,1,3,15,510,-2143,867,-129,-8.1,5.6,338,124,35,0,1500,0,0,11.8,5.60,15,0.000,0,7,44,2,0
[FLT] 5521,8,landing,2.444,2.444,-1.000,0,2.570,2.570,0,12.104,-2.197,-217,-189,-187,2,-0.350,0.000,1.820,218,0,1308,1308,1000,1310,0,3,15,510,-2143,867,-129,-8.1,5.6,338,124,35,0,1500,0,0,11.8,4.72,15,0.000,0,7,43,2,0
[FLT] 5586,8,landing,2.358,2.358,-1.000,0,2.470,2.470,0,12.104,-2.158,-213,-180,-187,2,-0.350,0.000,1.780,213,0,1303,1303,1000,1310,0,3,15,510,-2143,867,-129,-8.1,5.6,338,124,35,0,1500,0,0,11.8,4.72,15,0.000,0,7,44,2,0
[FLT] 5652,8,landing,2.174,2.174,-1.000,0,2.170,2.170,0,12.104,-2.123,-210,-213,-187,2,-0.350,0.000,1.750,209,0,1299,1299,1000,1310,0,64,39,509,1100,450,-363,-8.1,5.6,338,124,35,0,1500,0,0,11.8,4.72,15,0.000,0,7,43,2,0
[FLT] 5716,8,landing,2.073,2.073,-1.000,0,2.070,2.070,0,12.104,-2.113,-211,-232,-187,2,-0.350,0.000,1.760,211,0,1301,1301,1000,1310,0,64,39,509,1100,450,-363,8.9,1.8,338,124,35,0,1500,0,0,11.8,4.72,15,0.000,0,7,44,1,0
[FLT] 5782,8,landing,1.870,1.870,-1.000,0,1.930,1.930,0,12.104,-2.130,-215,-230,-220,2,-0.350,0.000,1.800,216,0,1306,1306,1000,1310,0,64,39,509,1100,450,-363,8.9,1.8,338,125,35,0,1500,0,0,11.8,4.72,15,0.000,0,7,43,2,0
[FLT] 5846,8,landing,1.779,1.779,-1.000,0,2.000,2.000,0,12.104,-2.138,-214,-198,-220,2,-0.350,0.000,1.790,214,0,1304,1304,1000,1310,0,64,39,509,1100,450,-363,8.9,1.8,338,125,35,0,1500,0,0,11.9,5.57,15,0.000,0,7,44,2,0
[FLT] 5913,8,landing,1.628,1.628,-1.000,0,1.950,1.950,0,12.104,-2.094,-204,-130,-220,2,-0.350,0.000,1.690,202,0,1292,1292,1000,1310,0,64,39,509,1100,450,-363,8.9,1.8,338,125,35,0,1500,0,0,11.9,5.57,15,0.000,0,7,44,2,0
[FLT] 5977,8,landing,1.566,1.566,-1.000,0,1.870,1.870,0,12.104,-2.018,-196,-119,-148,2,-0.350,0.000,1.610,193,0,1283,1283,1000,1310,0,-52,-64,416,247,-1287,36,8.9,1.8,338,125,35,0,1500,0,0,11.9,5.57,15,0.000,0,7,44,4,0
[FLT] 6044,8,landing,1.438,1.438,-1.000,0,1.690,1.690,0,12.104,-1.914,-183,-137,-148,2,-0.350,0.000,1.480,177,0,1267,1267,1000,1310,0,-52,-64,416,247,-1287,36,-4.8,-5.0,336,125,35,0,1500,0,0,11.9,5.57,15,0.000,0,7,43,2,0
[FLT] 6109,8,landing,1.365,1.365,-1.000,0,1.530,1.530,0,12.104,-1.843,-180,-160,-148,2,-0.350,0.000,1.450,173,0,1263,1263,1000,1310,0,-52,-64,416,247,-1287,36,-4.8,-5.0,336,124,35,0,1500,0,0,11.9,5.57,15,0.000,0,7,44,7,0
[FLT] 6175,8,landing,1.189,1.189,-1.000,0,1.250,1.250,0,12.104,-1.827,-184,-219,-209,2,-0.350,0.000,1.490,178,0,1268,1268,1000,1310,0,-52,-64,416,247,-1287,36,-4.8,-5.0,336,124,35,0,1500,0,0,11.9,3.05,15,0.000,0,7,43,2,0
[FLT] 6240,8,landing,1.089,1.089,-1.000,0,1.160,1.160,0,12.104,-1.861,-189,-233,-209,2,-0.350,0.000,1.540,184,0,1274,1274,1140,1310,0,-52,-64,416,247,-1287,36,-4.8,-5.0,336,124,35,0,1500,0,0,11.9,3.05,15,0.000,0,7,44,2,0
[FLT] 6306,8,landing,0.897,0.897,-1.000,0,0.990,0.990,0,12.104,-1.913,-195,-231,-209,2,-0.196,0.000,1.754,210,0,1358,1310,1140,1310,1,123,74,389,-402,639,-29,-4.8,-5.0,336,124,35,0,1500,0,0,11.9,3.05,15,0.000,0,7,43,2,0
[FLT] 6370,8,landing,0.802,0.802,-1.000,0,0.890,0.890,0,12.104,-1.948,-197,-232,-209,2,-0.135,0.000,1.835,220,0,1388,1310,1140,1310,1,123,74,389,-402,639,-29,1.4,0.1,334,124,35,0,1500,0,0,11.9,3.05,15,0.000,0,7,44,2,0
[FLT] 6436,8,landing,0.613,0.613,-1.000,0,0.710,0.710,0,12.104,-1.982,-201,-229,-208,2,-0.070,0.000,1.940,232,0,1422,1310,1140,1310,1,123,74,389,-402,639,-29,1.4,0.1,334,124,35,0,1500,0,0,11.9,3.05,15,0.000,0,7,43,4,0
[FLT] 6500,8,landing,0.516,0.516,-1.000,0,0.600,0.600,0,12.104,-2.011,-203,-233,-208,2,-0.070,0.000,1.960,235,0,1425,1310,1140,1310,1,123,74,389,-402,639,-29,1.4,0.1,334,124,35,0,1500,0,0,12.0,2.85,15,0.000,0,7,44,2,0
