[RUN] MISSION type=1 hover=1400 sprintThr=2000 cutoff=15.80 target=18.30 yawSpinStart=6000 punchStart=7000 punchThr=2000 punchYaw=1900 kp=0.80 ki=0.00 kd=110.00 tofFull=1.60 tofZero=2.20
[FLT] ms,state,phase,alt,lowRel,tof,tofW,baro,cbaro,src,setpt,fV,usedV,bfV,derV,vsrc,desV,aErr,vErr,P,I,rawThr,thr,minThr,maxThr,sat,accX,accY,accZ,gyroX,gyroY,gyroZ,roll,pitch,yaw,cycle,sensors,rcThr,cmdYaw,rcArm,rcAngle,vbat,amps,diag,tofRaw,tofReadOk,tofReject,tofDt,tofStatus,tofI2c
[FLT] 59,2,sprint,-0.308,-0.308,-1.000,0,0.030,0.030,0,0.000,0.007,0,0,0,2,0.000,0.000,0.000,0,0,2000,2000,2000,2000,0,58,3,487,-179,72,-90,1.9,-3.7,37,124,35,0,1500,0,0,12.0,0.40,15,0.000,0,7,40,2,0
[FLT] 120,2,sprint,-0.305,-0.305,-1.000,0,0.030,0.030,0,0.000,0.002,0,0,0,2,0.000,0.000,0.000,0,0,2000,2000,2000,2000,0,58,3,487,-179,72,-90,2.4,-4.7,38,124,35,0,1500,0,0,12.0,0.40,15,0.000,0,7,40,2,0
[FLT] 179,2,sprint,-0.308,-0.308,-1.000,0,0.020,0.020,0,0.000,0.001,0,0,0,2,0.000,0.000,0.000,0,0,2000,2000,2000,2000,0,58,3,487,-179,72,-90,2.4,-4.7,38,125,35,0,1500,0,0,12.0,0.40,15,0.000,0,7,40,2,0
[FLT] 240,2,sprint,-0.253,-0.253,-1.000,0,0.260,0.260,0,0.000,0.024,8,43,51,2,0.000,0.000,0.000,0,0,2000,2000,2000,2000,0,58,3,487,-179,72,-90,2.4,-4.7,38,125,35,0,1500,0,0,11.6,18.42,15,0.000,0,7,40,2,0
[FLT] 299,2,sprint,-0.200,-0.200,-1.000,0,0.380,0.380,0,0.000,0.108,18,89,51,2,0.000,0.000,0.000,0,0,2000,2000,2000,2000,0,58,3,487,-179,72,-90,2.4,-4.7,38,125,35,0,1500,0,0,11.6,18.42,15,0.000,0,7,40,7,0
[FLT] 360,2,sprint,-0.204,-0.204,-1.000,0,0.480,0.137,0,0.000,0.232,35,133,51,2,0.000,0.000,0.000,0,0,2000,2000,2000,2000,0,114,757,1340,-133,351,-105,2.4,-4.7,38,125,35,0,1500,0,0,11.6,18.42,15,0.097,0,7,40,2,0
[FLT] 419,2,sprint,-0.177,-0.177,0.097,80,0.700,0.357,3,0.000,0.346,43,161,51,2,0.000,0.000,0.000,0,0,2000,2000,2000,2000,0,114,757,1340,-133,351,-105,-0.6,-2.3,37,125,35,0,1500,0,0,11.6,18.42,15,0.097,0,2,40,2,0
[FLT] 480,2,sprint,-0.041,-0.041,-1.000,0,1.530,1.187,0,0.000,0.580,83,369,146,2,0.000,0.000,0.000,0,0,2000,2000,2000,2000,0,114,757,1340,-133,351,-105,-0.6,-2.3,37,125,35,0,1500,0,0,11.6,18.42,15,0.097,0,7,40,1,0
[FLT] 539,2,sprint,0.063,0.063,-1.000,0,1.850,1.507,0,0.000,0.855,107,474,146,2,0.000,0.000,0.000,0,0,2000,2000,2000,2000,0,114,757,1340,-133,351,-105,-0.6,-2.3,37,125,35,0,1500,0,0,11.0,24.47,15,0.097,0,7,40,1,0
[FLT] 599,2,sprint,0.179,0.179,-1.000,0,1.950,1.607,0,0.000,1.138,130,516,146,2,0.000,0.000,0.000,0,0,2000,2000,2000,2000,0,114,757,1340,-133,351,-105,-0.6,-2.3,37,125,35,0,1500,0,0,11.0,24.47,15,0.097,0,7,40,2,0
[FLT] 660,2,sprint,0.528,0.528,-1.000,0,2.410,2.067,0,0.000,1.555,195,563,345,2,0.000,0.000,0.000,0,0,2000,2000,2000,2000,0,116,1755,661,-476,468,-20,-0.6,-2.3,37,125,35,0,1500,0,0,11.0,24.47,15,0.097,0,7,40,2,0
[FLT] 720,2,sprint,0.811,0.811,-1.000,0,2.360,2.017,0,0.000,2.021,239,477,345,2,0.000,0.000,0.000,0,0,2000,2000,2000,2000,0,116,1755,661,-476,468,-20,0.9,0.5,37,125,35,0,1500,0,0,11.0,24.47,15,0.097,0,7,40,1,0
[FLT] 781,2,sprint,1.044,1.044,-1.000,0,2.690,2.347,0,0.000,2.334,264,438,345,2,0.000,0.000,0.000,0,0,2000,2000,2000,2000,0,116,1755,661,-476,468,-20,0.9,0.5,37,124,35,0,1500,0,0,11.0,24.47,15,0.097,0,7,60,2,0
[FLT] 840,2,sprint,1.380,1.380,-1.000,0,3.180,2.837,0,0.000,2.718,306,486,392,2,0.000,0.000,0.000,0,0,2000,2000,2000,2000,0,116,1755,661,-476,468,-20,0.9,0.5,37,124,35,0,1500,0,0,10.8,21.70,15,0.097,0,7,40,2,0
[FLT] 901,2,sprint,1.643,1.643,-1.000,0,3.280,2.937,0,0.000,2.998,326,485,392,2,0.000,0.000,0.000,0,0,2000,2000,2000,2000,0,116,1755,661,-476,468,-20,0.9,0.5,37,124,35,0,1500,0,0,10.8,21.70,15,0.097,0,7,60,2,0
[FLT] 961,2,sprint,1.935,1.935,-1.000,0,3.340,2.997,0,0.000,3.268,346,396,392,2,0.000,0.000,0.000,0,0,2000,2000,2000,2000,0,121,-78,455,-432,-344,-198,0.9,0.5,37,124,35,0,1500,0,0,10.8,21.70,15,0.097,0,7,40,1,0
[FLT] 1019,2,sprint,2.109,2.109,-1.000,0,3.640,3.297,0,0.000,3.418,352,387,392,2,0.000,0.000,0.000,0,0,2000,2000,2000,2000,0,121,-78,455,-432,-344,-198,2.9,-4.0,32,124,35,0,1500,0,0,10.8,21.70,15,0.097,0,7,40,1,0
[FLT] 1080,2,sprint,2.479,2.479,-1.000,0,4.090,3.747,0,0.000,3.552,367,451,377,2,0.000,0.000,0.000,0,0,2000,2000,2000,2000,0,121,-78,455,-432,-344,-198,2.9,-4.0,32,124,35,0,1500,0,0,10.8,21.70,15,0.097,0,7,40,2,0
[FLT] 1139,2,sprint,2.667,2.667,-1.000,0,4.200,3.857,0,0.000,3.661,374,455,377,2,0.000,0.000,0.000,0,0,2000,2000,2000,2000,0,121,-78,455,-432,-344,-198,2.9,-4.0,32,124,35,0,1500,0,0,10.7,22.15,15,0.097,0,7,40,2,0
[FLT] 1200,2,sprint,3.123,3.123,-1.000,0,5.560,5.217,0,0.000,3.835,404,651,377,2,0.000,0.000,0.000,0,0,2000,2000,2000,2000,0,121,-78,455,-432,-344,-198,2.9,-4.0,32,124,35,0,1500,0,0,10.7,22.15,15,0.097,0,7,40,2,0
[FLT] 1259,2,sprint,3.501,3.501,-1.000,0,6.630,6.287,0,0.000,4.223,457,919,822,2,0.000,0.000,0.000,0,0,2000,2000,2000,2000,0,174,2906,757,176,-880,377,2.9,-4.0,32,124,35,0,1500,0,0,10.7,22.15,15,0.097,0,7,40,2,0
[FLT] 1320,2,sprint,4.100,4.100,-1.000,0,7.720,7.377,0,0.000,4.607,492,1280,822,2,0.000,0.000,0.000,0,0,2000,2000,2000,2000,0,174,2906,757,176,-880,377,2.4,-2.2,34,124,35,0,1500,0,0,10.7,22.15,15,0.097,0,7,40,2,0
[FLT] 1379,2,sprint,4.408,4.408,-1.000,0,7.810,7.467,0,0.000,4.888,509,1283,822,2,0.000,0.000,0.000,0,0,2000,2000,2000,2000,0,174,2906,757,176,-880,377,2.4,-2.2,34,124,35,0,1500,0,0,10.7,22.15,15,0.097,0,7,40,2,0
[FLT] 1441,2,sprint,5.116,5.116,-1.000,0,7.620,7.277,0,0.000,5.272,573,991,674,2,0.000,0.000,0.000,0,0,2000,2000,2000,2000,0,174,2906,757,176,-880,377,2.4,-2.2,34,124,35,0,1500,0,0,10.6,21.35,15,0.097,0,7,40,2,0
[FLT] 1501,2,sprint,5.567,5.567,-1.000,0,7.600,7.257,0,0.000,5.639,598,786,674,2,0.000,0.000,0.000,0,0,2000,2000,2000,2000,0,174,2906,757,176,-880,377,2.4,-2.2,34,124,35,0,1500,0,0,10.6,21.35,15,0.097,0,7,60,2,0
[FLT] 1561,2,sprint,6.044,6.044,-1.000,0,8.160,7.817,0,0.000,5.934,613,613,674,2,0.000,0.000,0.000,0,0,2000,2000,2000,2000,0,80,292,445,-623,294,-685,2.4,-2.2,34,124,35,0,1500,0,0,10.6,21.35,15,0.097,0,7,40,2,0
[FLT] 1619,2,sprint,6.341,6.341,-1.000,0,8.620,8.277,0,0.000,6.086,619,635,674,2,0.000,0.000,0.000,0,0,2000,2000,2000,2000,0,80,292,445,-623,294,-685,-1.7,0.5,36,124,35,0,1500,0,0,10.6,21.35,15,0.097,0,7,40,2,0
[FLT] 1681,2,sprint,6.948,6.948,-1.000,0,9.140,8.797,0,0.000,6.223,634,696,661,2,0.000,0.000,0.000,0,0,2000,2000,2000,2000,0,80,292,445,-623,294,-685,-1.7,0.5,36,124,35,0,1500,0,0,10.6,21.35,15,0.097,0,7,40,2,0
[FLT] 1739,2,sprint,7.258,7.258,-1.000,0,9.330,8.987,0,0.000,6.325,640,688,661,2,0.000,0.000,0.000,0,0,2000,2000,2000,2000,0,80,292,445,-623,294,-685,-1.7,0.5,36,124,35,0,1500,0,0,10.4,24.85,15,0.097,0,7,40,2,0
[FLT] 1801,2,sprint,7.899,7.899,-1.000,0,10.300,9.957,0,0.000,6.455,659,776,661,2,0.000,0.000,0.000,0,0,2000,2000,2000,2000,0,80,292,445,-623,294,-685,-1.7,0.5,36,124,35,0,1500,0,0,10.4,24.85,15,0.097,0,7,40,2,0
[FLT] 1859,2,sprint,8.259,8.259,-1.000,0,10.690,10.347,0,0.000,6.626,677,845,762,2,0.000,0.000,0.000,0,0,2000,2000,2000,2000,0,159,548,331,-535,-568,414,-1.7,0.5,36,124,35,0,1500,0,0,10.4,24.85,15,0.097,0,7,40,2,0
[FLT] 1921,2,sprint,8.957,8.957,-1.000,0,10.990,10.647,0,0.000,6.868,707,825,762,2,0.000,0.000,0.000,0,0,2000,2000,2000,2000,0,159,548,331,-535,-568,414,-0.6,-2.2,36,124,35,0,1500,0,0,10.4,24.85,15,0.097,0,7,40,2,0
[FLT] 1979,2,sprint,9.293,9.293,-1.000,0,11.100,10.757,0,0.000,7.028,714,761,762,2,0.000,0.000,0.000,0,0,2000,2000,2000,2000,0,159,548,331,-535,-568,414,-0.6,-2.2,36,125,35,0,1500,0,0,10.4,24.85,15,0.097,0,7,40,2,0
[FLT] 2041,2,sprint,9.827,9.827,-1.000,0,10.960,10.617,0,0.000,7.049,696,556,480,2,0.000,0.000,0.000,0,0,2000,2000,2000,2000,0,159,548,331,-535,-568,414,-0.6,-2.2,36,125,35,0,1500,0,0,10.4,24.95,15,0.097,0,7,40,2,0
[FLT] 2099,2,sprint,10.029,10.029,-1.000,0,10.830,10.487,0,0.000,6.863,669,405,480,2,0.000,0.000,0.000,0,0,2000,2000,2000,2000,0,159,548,331,-535,-568,414,-0.6,-2.2,36,125,35,0,1500,0,0,10.4,24.95,15,0.097,0,7,40,2,0
[FLT] 2161,2,sprint,10.369,10.369,-1.000,0,11.160,10.817,0,0.000,6.466,609,288,480,2,0.000,0.000,0.000,0,0,2000,2000,2000,2000,0,234,693,537,730,186,-21,-0.6,-2.2,36,125,35,0,1500,0,0,10.4,24.95,15,0.097,0,7,40,2,0
[FLT] 2219,2,sprint,10.526,10.526,-1.000,0,11.230,10.887,0,0.000,6.101,582,268,480,2,0.000,0.000,0.000,0,0,2000,2000,2000,2000,0,234,693,537,730,186,-21,0.1,0.1,36,125,35,0,1500,0,0,10.4,24.95,15,0.097,0,7,40,2,0
[FLT] 2281,2,sprint,10.809,10.809,-1.000,0,11.650,11.307,0,0.000,5.643,526,278,351,2,0.000,0.000,0.000,0,0,2000,2000,2000,2000,0,234,693,537,730,186,-21,0.1,0.1,36,125,35,0,1500,0,0,10.4,24.95,15,0.097,0,7,40,2,0
[FLT] 2340,2,sprint,10.976,10.976,-1.000,0,12.090,11.747,0,0.000,5.317,509,363,351,2,0.000,0.000,0.000,0,0,2000,2000,2000,2000,0,234,693,537,730,186,-21,0.1,0.1,36,125,35,0,1500,0,0,10.2,25.77,15,0.097,0,7,41,2,0
[FLT] 2399,2,sprint,11.162,11.162,-1.000,0,12.410,12.067,0,0.000,5.117,500,443,351,2,0.000,0.000,0.000,0,0,2000,2000,2000,2000,0,234,693,537,730,186,-21,0.1,0.1,36,125,35,0,1500,0,0,10.2,25.77,15,0.097,0,7,39,2,0
[FLT] 2461,2,sprint,11.730,11.730,-1.000,0,13.010,12.667,0,0.000,5.098,513,596,540,2,0.000,0.000,0.000,0,0,2000,2000,2000,2000,0,66,288,383,687,48,-224,0.1,0.1,36,125,35,0,1500,0,0,10.2,25.77,15,0.097,0,7,40,2,0
[FLT] 2521,2,sprint,12.143,12.143,-1.000,0,13.650,13.307,0,0.000,5.220,536,686,540,2,0.000,0.000,0.000,0,0,2000,2000,2000,2000,0,66,288,383,687,48,-224,0.4,-0.2,36,125,35,0,1500,0,0,10.2,25.77,15,0.097,0,7,41,2,0
[FLT] 2581,2,sprint,12.520,12.520,-1.000,0,13.860,13.517,0,0.000,5.352,550,712,540,2,0.000,0.000,0.000,0,0,2000,2000,2000,2000,0,66,288,383,687,48,-224,0.4,-0.2,36,125,35,0,1500,0,0,10.2,25.77,15,0.097,0,7,59,2,0
[FLT] 2641,2,sprint,12.892,12.892,-1.000,0,13.580,13.237,0,0.000,5.510,560,550,567,2,0.000,0.000,0.000,0,0,2000,2000,2000,2000,0,66,288,383,687,48,-224,0.4,-0.2,36,125,35,0,1500,0,0,10.3,22.27,15,0.097,0,7,40,1,0
[FLT] 2701,2,sprint,13.195,13.195,-1.000,0,13.690,13.347,0,0.000,5.533,549,428,567,2,0.000,0.000,0.000,0,0,2000,2000,2000,2000,0,66,288,383,687,48,-224,0.4,-0.2,36,125,35,0,1500,0,0,10.3,22.27,15,0.097,0,7,59,2,0
[FLT] 2761,2,sprint,13.470,13.470,-1.000,0,14.240,13.897,0,0.000,5.422,532,414,567,2,0.000,0.000,0.000,0,0,2000,2000,2000,2000,0,-4,298,579,567,-419,-325,0.4,-0.2,36,125,35,0,1500,0,0,10.3,22.27,15,0.097,0,7,40,2,0
[FLT] 2820,2,sprint,13.650,13.650,-1.000,0,14.370,14.027,0,0.000,5.299,520,418,435,2,0.000,0.000,0.000,0,0,2000,2000,2000,2000,0,-4,298,579,567,-419,-325,1.4,0.1,33,125,35,0,1500,0,0,10.3,22.27,15,0.097,0,7,40,2,0
[FLT] 2881,2,sprint,14.012,14.012,-1.000,0,14.760,14.417,0,0.000,5.151,503,436,435,2,0.000,0.000,0.000,0,0,2000,2000,2000,2000,0,-4,298,579,567,-419,-325,1.4,0.1,33,125,35,0,1500,0,0,10.3,22.27,15,0.097,0,7,40,2,0
[FLT] 2940,2,sprint,14.217,14.217,-1.000,0,15.330,14.987,0,0.000,5.065,501,509,435,2,0.000,0.000,0.000,0,0,2000,2000,2000,2000,0,-4,298,579,567,-419,-325,1.4,0.1,33,125,35,0,1500,0,0,10.3,20.57,15,0.097,0,7,40,2,0
[FLT] 3001,2,sprint,14.743,14.743,-1.000,0,16.370,16.027,0,0.000,5.139,531,752,689,2,0.000,0.000,0.000,0,0,2000,2000,2000,2000,0,-4,298,579,567,-419,-325,1.4,0.1,33,125,35,0,1500,0,0,10.3,20.57,15,0.097,0,7,40,2,0
[FLT] 3060,2,sprint,15.059,15.059,-1.000,0,16.670,16.327,0,0.000,5.379,558,841,689,2,0.000,0.000,0.000,0,0,2000,2000,2000,2000,0,196,2291,432,224,-897,395,1.4,0.1,33,125,35,0,1500,0,0,10.3,20.57,15,0.097,0,7,40,2,0
[FLT] 3121,2,sprint,15.677,15.677,-1.000,0,16.850,16.507,0,0.000,5.731,603,804,689,2,0.000,0.000,0.000,0,0,2000,2000,2000,2000,0,196,2291,432,224,-897,395,0.2,-2.2,35,125,35,0,1500,0,0,10.3,20.57,15,0.097,0,7,40,2,0
[FLT] 3180,3,hold,15.952,15.952,-1.000,0,16.840,16.497,0,18.300,5.968,613,700,689,2,1.200,2.048,-4.930,-298,-0,1102,1975,1100,1700,-1,196,2291,432,224,-897,395,0.2,-2.2,35,124,35,0,1500,0,0,10.3,20.57,15,0.097,0,7,40,2,0
[FLT] 3241,3,hold,16.426,16.426,-1.000,0,17.340,16.997,0,18.300,6.041,606,593,509,2,1.200,1.574,-4.860,-294,-0,1106,1900,1100,1700,-1,196,2291,432,224,-897,395,0.2,-2.2,35,124,35,0,1500,0,0,10.3,21.02,15,0.097,0,7,40,2,0
[FLT] 3302,3,hold,16.781,16.781,-1.000,0,17.610,17.267,0,18.300,6.038,601,598,509,2,0.975,1.219,-5.035,-305,-0,1095,1825,1100,1700,-1,196,2291,432,224,-897,395,0.2,-2.2,35,124,35,0,1500,0,0,10.3,21.02,15,0.097,0,7,60,2,0
[FLT] 3361,3,hold,17.103,17.103,-1.000,0,17.720,17.377,0,18.300,5.971,589,528,509,2,0.717,0.897,-5.173,-313,-0,1087,1750,1100,1700,-1,-39,-585,568,734,-36,108,0.2,-2.2,35,124,35,0,1500,0,0,10.3,21.02,15,0.097,0,7,40,2,0
[FLT] 3420,3,hold,17.305,17.305,-1.000,0,17.890,17.547,0,18.300,5.866,578,486,491,2,0.556,0.695,-5.224,-316,-0,1084,1675,1100,1700,-1,-39,-585,568,734,-36,108,2.4,-0.8,34,124,35,0,1500,0,0,10.3,21.02,15,0.097,0,7,40,2,0
[FLT] 3481,3,hold,17.698,17.698,-1.000,0,18.320,17.977,0,18.300,5.717,558,470,491,2,0.241,0.302,-5.339,-323,-0,1077,1600,1100,1700,-1,-39,-585,568,734,-36,108,2.4,-0.8,34,124,35,0,1500,0,0,10.3,21.02,15,0.097,0,7,40,1,0
[FLT] 3540,3,hold,17.899,17.899,-1.000,0,18.550,18.207,0,18.300,5.597,551,487,491,2,0.081,0.101,-5.429,-328,-0,1072,1525,1100,1700,-1,-39,-585,568,734,-36,108,2.4,-0.8,34,124,35,0,1500,0,0,10.4,17.15,15,0.097,0,7,40,2,0
[FLT] 3602,3,hold,18.301,18.301,-1.000,0,18.950,18.607,0,18.300,5.483,540,500,509,2,-0.241,-0.301,-5.641,-341,-0,1059,1450,1100,1700,-1,-39,-585,568,734,-36,108,2.4,-0.8,34,124,35,0,1500,0,0,10.4,17.15,15,0.097,0,7,40,1,0
[FLT] 3660,3,hold,18.508,18.508,-1.000,0,19.160,18.817,0,18.300,5.417,537,517,509,2,-0.406,-0.508,-5.776,-349,-0,1051,1375,1100,1700,-1,56,-69,261,478,-394,42,2.4,-0.8,34,124,35,0,1500,0,0,10.4,17.15,15,0.097,0,7,40,2,0
[FLT] 3721,3,hold,18.904,18.904,-1.000,0,19.270,18.927,0,18.300,5.353,529,478,509,2,-0.723,-0.904,-6.013,-364,-0,1036,1300,1100,1700,-1,56,-69,261,478,-394,42,1.1,-2.6,35,124,35,0,1500,0,0,10.4,17.15,15,0.097,0,7,40,2,0
[FLT] 3780,3,hold,19.071,19.071,-1.000,0,19.150,18.807,0,18.300,5.259,518,391,509,2,-0.800,-1.071,-5.980,-362,-0,1038,1225,1100,1700,-1,56,-69,261,478,-394,42,1.1,-2.6,35,125,35,0,1500,0,0,10.4,17.15,15,0.097,0,7,40,2,0
[FLT] 3841,3,hold,19.294,19.294,-1.000,0,19.010,18.667,0,18.300,4.994,470,216,313,2,-0.800,-1.294,-5.500,-333,-0,1067,1150,1100,1700,-1,56,-69,261,478,-394,42,1.1,-2.6,35,125,35,0,1500,0,0,10.7,6.12,15,0.097,0,7,40,2,0
[FLT] 3900,3,hold,19.366,19.366,-1.000,0,18.910,18.567,0,18.300,4.664,440,124,313,2,-0.800,-1.366,-5.200,-315,-0,1085,1100,1100,1700,-1,56,-69,261,478,-394,42,1.1,-2.6,35,125,35,0,1500,0,0,10.7,6.12,15,0.097,0,7,40,2,0
[FLT] 3962,3,hold,19.449,19.449,-1.000,0,18.640,18.297,0,18.300,4.183,374,-11,313,2,-0.800,-1.449,-4.540,-275,-0,1125,1125,1100,1700,0,17,-120,52,-190,334,172,1.1,-2.6,35,125,35,0,1500,0,0,10.7,6.12,15,0.097,0,7,40,2,0
[FLT] 4020,3,hold,19.432,19.432,-1.000,0,18.540,18.197,0,18.300,3.696,331,-79,46,2,-0.800,-1.432,-4.110,-249,-0,1151,1151,1100,1700,0,17,-120,52,-190,334,172,-0.7,2.4,35,125,35,0,1500,0,0,10.7,6.12,15,0.097,0,7,40,2,0
[FLT] 4082,3,hold,19.359,19.359,-1.000,0,18.400,18.057,0,18.300,3.047,248,-153,46,2,-0.800,-1.359,-3.280,-198,-0,1202,1201,1100,1700,0,17,-120,52,-190,334,172,-0.7,2.4,35,123,35,0,1500,0,0,10.7,6.12,15,0.097,0,7,40,2,0
[FLT] 4140,3,hold,19.318,19.318,-1.000,0,18.390,18.047,0,18.300,2.517,212,-150,46,2,-0.800,-1.318,-2.920,-177,-0,1223,1223,1100,1700,0,17,-120,52,-190,334,172,-0.7,2.4,35,123,35,0,1500,0,0,11.1,1.57,15,0.097,0,7,40,2,0
[FLT] 4200,3,hold,19.274,19.274,-1.000,0,18.390,18.047,0,18.300,2.061,180,-140,46,2,-0.800,-1.274,-2.600,-157,-0,1243,1242,1100,1700,0,17,-120,52,-190,334,172,-0.7,2.4,35,123,35,0,1500,0,0,11.1,1.57,15,0.097,0,7,40,2,0
[FLT] 4262,3,hold,19.216,19.216,-1.000,0,18.430,18.087,0,18.300,1.616,124,-88,0,2,-0.800,-1.216,-2.040,-123,-0,1277,1276,1100,1700,0,157,34,153,-97,-294,125,-0.7,2.4,35,123,35,0,1500,0,0,11.1,1.57,15,0.097,0,7,40,2,0
[FLT] 4322,3,hold,19.125,19.125,-1.000,0,18.450,18.107,0,18.300,1.212,90,-45,0,2,-0.800,-1.095,-1.700,-103,-0,1297,1297,1100,1700,0,-63,-7,313,51,-266,-199,-0.7,2.4,35,123,35,0,1500,0,0,11.1,1.57,15,0.097,0,7,40,2,0
[FLT] 4380,3,hold,19.096,19.096,-1.000,0,18.440,18.097,0,18.300,0.954,77,-29,0,2,-0.800,-1.027,-1.570,-95,-0,1305,1305,1100,1700,0,-63,-7,313,51,-266,-199,-0.2,-1.8,36,123,35,0,1500,0,0,11.1,1.57,15,0.097,0,7,40,2,0
[FLT] 4442,3,hold,19.030,19.030,-1.000,0,18.300,17.957,0,18.300,0.730,55,-40,-5,2,-0.716,-0.895,-1.266,-77,-0,1323,1323,1100,1700,0,-63,-7,313,51,-266,-199,-0.2,-1.8,36,125,35,0,1500,0,0,11.1,1.57,15,0.097,0,7,40,2,0
[FLT] 4500,3,hold,18.987,18.987,-1.000,0,18.210,17.867,0,18.300,0.559,43,-65,-5,2,-0.653,-0.816,-1.083,-66,-0,1334,1334,1100,1700,0,-63,-7,313,51,-266,-199,-0.2,-1.8,36,125,35,0,1500,0,0,11.3,2.32,15,0.097,0,7,40,2,0
[FLT] 4562,3,hold,18.887,18.887,-1.000,0,18.100,17.757,0,18.300,0.362,19,-100,-5,2,-0.515,-0.644,-0.705,-43,-0,1357,1357,1100,1700,0,-63,-7,313,51,-266,-199,-0.2,-1.8,36,125,35,0,1500,0,0,11.3,2.32,15,0.097,0,7,40,2,0
[FLT] 4620,3,hold,18.822,18.822,-1.000,0,18.030,17.687,0,18.300,0.187,5,-115,-84,2,-0.429,-0.537,-0.479,-29,-0,1371,1370,1100,1700,0,56,45,331,-204,-275,-19,-0.2,-1.8,36,125,35,0,1500,0,0,11.3,2.32,15,0.097,0,7,40,1,0
[FLT] 4682,3,hold,18.683,18.683,-1.000,0,17.920,17.577,0,18.300,-0.022,-20,-132,-84,2,-0.259,-0.323,-0.059,-4,-0,1396,1396,1100,1700,0,56,45,331,-204,-275,-19,-1.2,-0.6,38,125,35,0,1500,0,0,11.3,2.32,15,0.097,0,7,40,2,0
[FLT] 4740,3,hold,18.612,18.612,-1.000,0,17.880,17.537,0,18.300,-0.186,-31,-133,-84,2,-0.175,-0.219,0.135,15,0,1415,1414,1100,1700,0,56,45,331,-204,-275,-19,-1.2,-0.6,38,125,35,0,1500,0,0,11.3,2.32,15,0.097,0,7,40,2,0
[FLT] 4802,3,hold,18.461,18.461,-1.000,0,17.700,17.357,0,18.300,-0.371,-53,-146,-120,2,-0.001,-0.002,0.529,58,0,1458,1458,1100,1700,0,56,45,331,-204,-275,-19,-1.2,-0.6,38,125,35,0,1500,0,0,11.3,3.65,15,0.097,0,7,40,2,0
[FLT] 4861,3,hold,18.375,18.375,-1.000,0,17.590,17.247,0,18.300,-0.525,-64,-164,-120,2,0.093,0.117,0.733,81,0,1481,1480,1100,1700,0,56,45,331,-204,-275,-19,-1.2,-0.6,38,125,35,0,1500,0,0,11.3,3.65,15,0.097,0,7,40,2,0
[FLT] 4922,3,hold,18.198,18.198,-1.000,0,17.480,17.137,0,18.300,-0.700,-85,-180,-120,2,0.285,0.357,1.135,125,0,1525,1524,1100,1700,0,93,-3,581,-87,-5,207,-1.2,-0.6,38,125,35,0,1500,0,0,11.3,3.65,15,0.097,0,7,40,1,0
[FLT] 4980,3,hold,18.111,18.111,-1.000,0,17.440,17.097,0,18.300,-0.837,-94,-172,-120,2,0.376,0.471,1.316,145,0,1545,1544,1100,1700,0,93,-3,581,-87,-5,207,0.4,-0.3,37,125,35,0,1500,0,0,11.3,3.65,15,0.097,0,7,40,2,0
[FLT] 5042,3,hold,17.926,17.926,-1.000,0,17.210,16.867,0,18.300,-0.983,-111,-183,-147,2,0.539,0.674,1.649,181,0,1581,1581,1100,1700,0,93,-3,581,-87,-5,207,0.4,-0.3,37,124,35,0,1500,0,0,11.3,3.65,15,0.097,0,7,41,2,0
[FLT] 5101,3,hold,17.829,17.829,-1.000,0,17.140,16.797,0,18.300,-1.102,-119,-193,-147,2,0.617,0.771,1.807,199,0,1599,1598,1100,1700,0,93,-3,581,-87,-5,207,0.4,-0.3,37,124,35,0,1500,0,0,11.3,6.95,15,0.097,0,7,40,1,0
[FLT] 5160,3,hold,17.733,17.733,-1.000,0,17.090,16.747,0,18.300,-1.202,-126,-192,-147,2,0.694,0.867,1.954,215,0,1615,1614,1100,1700,0,93,-3,581,-87,-5,207,0.4,-0.3,37,124,35,0,1500,0,0,11.3,6.95,15,0.097,0,7,39,2,0
[FLT] 5222,3,hold,17.513,17.513,-1.000,0,16.970,16.627,0,18.300,-1.309,-140,-184,-160,2,0.869,1.087,2.269,250,0,1650,1649,1100,1700,0,107,-103,912,-72,-49,61,0.4,-0.3,37,124,35,0,1500,0,0,11.3,6.95,15,0.097,0,7,40,2,0
[FLT] 5282,3,hold,17.363,17.363,-1.000,0,16.940,16.597,0,18.300,-1.398,-146,-154,-160,2,0.990,1.237,2.450,269,0,1669,1669,1100,1700,0,107,-103,912,-72,-49,61,-0.4,-0.6,38,124,35,0,1500,0,0,11.3,6.95,15,0.097,0,7,40,2,0
[FLT] 5342,3,hold,17.253,17.253,-1.000,0,16.940,16.597,0,18.300,-1.441,-147,-131,-160,2,1.077,1.347,2.547,280,0,1680,1680,1100,1700,0,107,-103,912,-72,-49,61,-0.4,-0.6,38,124,35,0,1500,0,0,11.3,6.95,15,0.097,0,7,60,2,0
[FLT] 5402,3,hold,17.167,17.167,-1.000,0,17.100,16.757,0,18.300,-1.413,-136,-53,-96,2,1.147,1.433,2.507,276,0,1676,1675,1100,1700,0,107,-103,912,-72,-49,61,-0.4,-0.6,38,124,35,0,1500,0,0,11.1,11.25,15,0.097,0,7,40,2,0
[FLT] 5462,3,hold,17.104,17.104,-1.000,0,17.160,16.817,0,18.300,-1.346,-125,-4,-96,2,1.196,1.496,2.446,269,0,1669,1669,1100,1700,0,107,-103,912,-72,-49,61,-0.4,-0.6,38,124,35,0,1500,0,0,11.1,11.25,15,0.097,0,7,60,1,0
[FLT] 5522,3,hold,17.071,17.071,-1.000,0,17.250,16.907,0,18.300,-1.192,-105,32,-96,2,1.200,1.529,2.250,248,0,1648,1647,1100,1700,0,7,101,860,87,19,-27,-0.4,-0.6,38,124,35,0,1500,0,0,11.1,11.25,15,0.097,0,7,40,2,0
[FLT] 5581,3,hold,17.068,17.068,-1.000,0,17.340,16.997,0,18.300,-1.024,-89,61,25,2,1.199,1.499,2.089,230,0,1630,1629,1100,1700,0,7,101,860,87,19,-27,0.3,0.4,38,124,35,0,1500,0,0,11.1,11.25,15,0.097,0,7,40,2,0
[FLT] 5642,3,hold,17.092,17.092,-1.000,0,17.530,17.187,0,18.300,-0.785,-56,125,25,2,1.101,1.376,1.661,183,0,1583,1582,1100,1700,0,7,101,860,87,19,-27,0.3,0.4,38,124,35,0,1500,0,0,11.1,11.25,15,0.097,0,7,40,1,0
[FLT] 5701,3,hold,17.108,17.108,-1.000,0,17.460,17.117,0,18.300,-0.570,-41,123,25,2,1.052,1.315,1.462,161,0,1561,1560,1100,1700,0,7,101,860,87,19,-27,0.3,0.4,38,124,35,0,1500,0,0,11.0,11.75,15,0.097,0,7,40,2,0
[FLT] 5762,3,hold,17.128,17.128,-1.000,0,17.480,17.137,0,18.300,-0.367,-20,77,45,2,0.986,1.232,1.186,130,0,1530,1530,1100,1700,0,7,101,860,87,19,-27,0.3,0.4,38,124,35,0,1500,0,0,11.0,11.75,15,0.097,0,7,40,2,0
[FLT] 5821,3,hold,17.145,17.145,-1.000,0,17.610,17.267,0,18.300,-0.218,-11,90,45,2,0.950,1.188,1.060,117,0,1517,1516,1100,1700,0,43,-55,569,-37,-65,11,0.3,0.4,38,124,35,0,1500,0,0,11.0,11.75,15,0.097,0,7,40,2,0
[FLT] 5882,3,hold,17.186,17.186,-1.000,0,17.630,17.287,0,18.300,-0.064,6,99,45,2,0.877,1.096,0.817,90,0,1490,1489,1100,1700,0,43,-55,569,-37,-65,11,0.0,1.0,37,124,35,0,1500,0,0,11.0,11.75,15,0.097,0,7,40,2,0
[FLT] 5941,3,hold,17.203,17.203,-1.000,0,17.620,17.277,0,18.300,0.044,12,85,45,2,0.849,1.061,0.729,80,0,1480,1480,1100,1700,0,43,-55,569,-37,-65,11,0.0,1.0,37,124,35,0,1500,0,0,11.0,11.75,15,0.097,0,7,40,2,0
[FLT] 6002,3,hold,17.236,17.236,-1.000,0,17.660,17.317,0,18.300,0.143,22,66,61,2,0.798,0.998,0.578,64,0,1464,1463,1100,1700,0,43,-55,569,-37,-65,11,0.0,1.0,37,124,35,0,1900,0,0,11.1,7.90,15,0.097,0,7,40,2,0
[FLT] 6063,3,hold,17.259,17.259,-1.000,0,17.730,17.387,0,18.300,0.208,27,65,61,2,0.768,0.960,0.498,55,0,1455,1454,1100,1700,0,43,-55,569,-37,-65,11,0.0,1.0,37,124,35,0,1900,0,0,11.1,7.90,15,0.097,0,7,60,2,0
[FLT] 6122,3,hold,17.301,17.301,-1.000,0,17.870,17.527,0,18.300,0.290,37,94,61,2,0.710,0.888,0.340,37,0,1437,1437,1100,1700,0,53,82,619,-283,216,-1624,0.0,1.0,37,124,35,0,1900,0,0,11.1,7.90,15,0.097,0,7,40,2,0
[FLT] 6181,3,hold,17.333,17.333,-1.000,0,17.910,17.567,0,18.300,0.370,43,103,94,2,0.670,0.838,0.240,26,0,1426,1426,1100,1700,0,53,82,619,-283,216,-1624,-0.5,0.5,41,124,35,0,1900,0,0,11.1,7.90,15,0.097,0,7,40,2,0
[FLT] 6243,3,hold,17.398,17.398,-1.000,0,17.970,17.627,0,18.300,0.463,54,99,94,2,0.592,0.740,0.052,6,0,1406,1405,1100,1700,0,53,82,619,-283,216,-1624,-0.5,0.5,41,124,35,0,1900,0,0,11.1,7.90,15,0.097,0,7,40,2,0
[FLT] 6301,3,hold,17.434,17.434,-1.000,0,18.070,17.727,0,18.300,0.535,59,109,94,2,0.551,0.688,-0.039,-2,-0,1398,1397,1100,1700,0,53,82,619,-283,216,-1624,-0.5,0.5,41,124,35,0,1900,0,0,11.0,9.45,15,0.097,0,7,40,2,0
[FLT] 6362,3,hold,17.521,17.521,-1.000,0,18.190,17.847,0,18.300,0.623,71,134,114,2,0.453,0.566,-0.257,-16,-0,1384,1384,1100,1700,0,53,82,619,-283,216,-1624,-0.5,0.5,41,124,35,0,1900,0,0,11.0,9.45,15,0.097,0,7,40,2,0
[FLT] 6421,3,hold,17.566,17.566,-1.000,0,18.220,17.877,0,18.300,0.702,76,133,114,2,0.405,0.506,-0.355,-21,-0,1379,1378,1100,1700,0,93,2546,515,-74,188,-3256,-0.5,0.5,41,124,35,0,1900,0,0,11.0,9.45,15,0.097,0,7,40,2,0
[FLT] 6483,3,hold,17.653,17.653,-1.000,0,18.280,17.937,0,18.300,0.784,85,118,114,2,0.314,0.392,-0.536,-32,-0,1368,1367,1100,1700,0,93,2546,515,-74,188,-3256,-2.8,1.7,93,124,35,0,1900,0,0,11.0,9.45,15,0.097,0,7,40,2,0
[FLT] 6541,3,hold,17.698,17.698,-1.000,0,18.380,18.037,0,18.300,0.840,88,121,114,2,0.271,0.338,-0.609,-37,-0,1363,1363,1100,1700,0,93,2546,515,-74,188,-3256,-2.8,1.7,93,124,35,0,1900,0,0,11.0,9.45,15,0.097,0,7,40,2,0
[FLT] 6603,3,hold,17.801,17.801,-1.000,0,18.540,18.197,0,18.300,0.907,97,147,126,2,0.167,0.208,-0.803,-49,-0,1351,1351,1100,1700,0,93,2546,515,-74,188,-3256,-2.8,1.7,93,124,35,0,1900,0,0,11.0,9.02,15,0.097,0,7,40,2,0
[FLT] 6661,3,hold,17.857,17.857,-1.000,0,18.610,18.267,0,18.300,0.970,102,154,126,2,0.114,0.143,-0.906,-55,-0,1345,1345,1100,1700,0,93,2546,515,-74,188,-3256,-2.8,1.7,93,124,35,0,1900,0,0,11.0,9.02,15,0.097,0,7,40,2,0
[FLT] 6723,3,hold,17.977,17.977,-1.000,0,18.800,18.457,0,18.300,1.050,112,175,126,2,0.019,0.023,-1.101,-67,-0,1333,1333,1100,1700,0,85,-58,626,458,-619,-5982,-2.8,1.7,93,124,35,0,1900,0,0,11.0,9.02,15,0.097,0,7,40,2,0
[FLT] 6781,3,hold,18.050,18.050,-1.000,0,18.930,18.587,0,18.300,1.133,120,196,172,2,-0.040,-0.050,-1.240,-75,-0,1325,1324,1100,1700,0,85,-58,626,458,-619,-5982,9.2,-1.9,186,124,35,0,1900,0,0,11.0,9.02,15,0.097,0,7,40,1,0
[FLT] 6843,3,hold,18.213,18.213,-1.000,0,19.150,18.807,0,18.300,1.259,137,228,172,2,-0.171,-0.213,-1.541,-93,-0,1307,1306,1100,1700,0,85,-58,626,458,-619,-5982,9.2,-1.9,186,124,35,0,1900,0,0,11.0,9.02,15,0.097,0,7,40,2,0
[FLT] 6901,3,hold,18.300,18.300,-1.000,0,19.280,18.937,0,18.300,1.372,146,239,172,2,-0.240,-0.300,-1.700,-103,-0,1297,1297,1100,1700,0,85,-58,626,458,-619,-5982,9.2,-1.9,186,124,35,0,1900,0,0,11.0,9.30,15,0.097,0,7,40,2,0
[FLT] 6961,3,hold,18.391,18.391,-1.000,0,19.380,19.037,0,18.300,1.479,154,250,172,2,-0.312,-0.391,-1.852,-112,-0,1288,1287,1100,1700,0,85,-58,626,458,-619,-5982,9.2,-1.9,186,124,35,0,1900,0,0,11.0,9.30,15,0.097,0,7,40,7,0
[FLT] 7023,4,punch,18.651,18.651,-1.000,0,19.840,19.497,0,18.300,1.648,182,325,237,2,0.000,0.000,0.000,0,0,2000,2000,2000,2000,0,174,1560,454,-148,-970,-7501,9.2,-1.9,186,124,35,0,1900,0,0,11.0,9.30,15,0.097,0,7,40,2,0
[FLT] 7083,4,punch,18.862,18.862,-1.000,0,19.960,19.617,0,18.300,1.880,207,338,237,2,0.000,0.000,0.000,0,0,2000,2000,2000,2000,0,174,1560,454,-148,-970,-7501,7.4,5.2,321,124,35,0,1900,0,0,11.0,9.30,15,0.097,0,7,40,2,0
[FLT] 7143,4,punch,19.018,19.018,-1.000,0,19.970,19.627,0,18.300,2.028,216,305,237,2,0.000,0.000,0.000,0,0,2000,2000,2000,2000,0,174,1560,454,-148,-970,-7501,7.4,5.2,321,125,35,0,1900,0,0,11.0,9.30,15,0.097,0,7,60,2,0
[FLT] 7203,4,punch,19.191,19.191,-1.000,0,20.210,19.867,0,18.300,2.159,226,272,235,2,0.000,0.000,0.000,0,0,2000,2000,2000,2000,0,174,1560,454,-148,-970,-7501,7.4,5.2,321,125,35,0,1900,0,0,10.9,15.55,15,0.097,0,7,40,1,0
[FLT] 7263,4,punch,19.351,19.351,-1.000,0,20.420,20.077,0,18.300,2.238,231,289,235,2,0.000,0.000,0.000,0,0,2000,2000,2000,2000,0,174,1560,454,-148,-970,-7501,7.4,5.2,321,125,35,0,1900,0,0,10.9,15.55,15,0.097,0,7,60,2,0
[FLT] 7323,4,punch,19.561,19.561,-1.000,0,20.940,20.597,0,18.300,2.352,247,365,235,2,0.000,0.000,0.000,0,0,2000,2000,2000,2000,0,-49,-84,852,509,4,-6965,7.4,5.2,321,125,35,0,1900,0,0,10.9,15.55,15,0.097,0,7,40,2,0
[FLT] 7382,4,punch,19.738,19.738,-1.000,0,21.280,20.937,0,18.300,2.524,267,444,406,2,0.000,0.000,0.000,0,0,2000,2000,2000,2000,0,-49,-84,852,509,4,-6965,0.2,-2.8,94,125,35,0,1900,0,0,10.9,15.55,15,0.097,0,7,40,2,0
[FLT] 7443,4,punch,20.129,20.129,-1.000,0,21.750,21.407,0,18.300,2.826,311,542,406,2,0.000,0.000,0.000,0,0,2000,2000,2000,2000,0,-49,-84,852,509,4,-6965,0.2,-2.8,94,124,35,0,1900,0,0,10.9,15.55,15,0.097,0,7,40,2,0
[FLT] 7502,4,punch,20.340,20.340,-1.000,0,21.980,21.637,0,18.300,3.113,333,571,406,2,0.000,0.000,0.000,0,0,2000,2000,2000,2000,0,-49,-84,852,509,4,-6965,0.2,-2.8,94,124,35,0,1900,0,0,10.6,19.32,15,0.097,0,7,40,2,0
[FLT] 7563,4,punch,20.753,20.753,-1.000,0,22.130,21.787,0,18.300,3.429,369,537,414,2,0.000,0.000,0.000,0,0,2000,2000,2000,2000,0,-49,-84,852,509,4,-6965,0.2,-2.8,94,124,35,0,1900,0,0,10.6,19.32,15,0.097,0,7,41,2,0
[FLT] 7622,4,punch,20.941,20.941,-1.000,0,22.200,21.857,0,18.300,3.637,378,476,414,2,0.000,0.000,0.000,0,0,2000,2000,2000,2000,0,425,48,484,321,-724,-7114,0.2,-2.8,94,124,35,0,1900,0,0,10.6,19.32,15,0.097,0,7,40,1,0
[FLT] 7683,4,punch,21.307,21.307,-1.000,0,22.590,22.247,0,18.300,3.788,390,443,414,2,0.000,0.000,0.000,0,0,2000,2000,2000,2000,0,425,48,484,321,-724,-7114,5.2,0.4,222,124,35,0,1900,0,0,10.6,19.32,15,0.097,0,7,40,2,0
[FLT] 7742,4,punch,21.495,21.495,-1.000,0,22.860,22.517,0,18.300,3.888,396,456,414,2,0.000,0.000,0.000,0,0,2000,2000,2000,2000,0,425,48,484,321,-724,-7114,5.2,0.4,222,124,35,0,1900,0,0,10.6,19.32,15,0.097,0,7,41,2,0
[FLT] 7803,4,punch,21.871,21.871,-1.000,0,23.060,22.717,0,18.300,3.991,407,454,421,2,0.000,0.000,0.000,0,0,2000,2000,2000,2000,0,425,48,484,321,-724,-7114,5.2,0.4,222,124,35,0,1900,0,0,10.6,17.05,15,0.097,0,7,39,2,0
