[RUN] ALT_HOLD hover=1350 target=1.00 kp=0.80 ki=0.00 kd=70.00 tofFull=3.60 tofZero=3.80
[FLT] ms,state,phase,alt,lowRel,tof,tofW,baro,cbaro,src,setpt,fV,usedV,bfV,derV,vsrc,desV,aErr,vErr,P,I,rawThr,thr,minThr,maxThr,sat,accX,accY,accZ,gyroX,gyroY,gyroZ,roll,pitch,yaw,cycle,sensors,rcThr,rcArm,rcAngle,vbat,amps,diag,tofRaw,tofReadOk,tofReject,tofDt
[FLT] 121,10,settle,-0.000,-0.000,-1.000,0,-0.030,-0.027,0,0.000,0.000,-1,0,0,2,0.000,0.000,0.000,0,0,1350,1350,1350,1350,0,-3,-14,518,13,-17,15,-0.8,0.4,330,124,35,1500,1800,1800,12.4,0.32,31,0.011,0,2,41
[FLT] 199,10,settle,0.002,0.002,0.000,100,-0.010,-0.007,1,0.000,0.000,0,0,0,2,0.000,0.000,0.000,0,0,1350,1350,1350,1350,0,-7,12,522,9,13,107,-0.5,0.3,329,124,35,1500,1800,1800,12.4,0.32,31,0.010,1,0,41
[FLT] 280,10,settle,0.000,0.000,0.000,100,0.000,-0.002,1,0.000,0.000,0,1,0,2,0.000,0.000,0.000,0,0,1350,1350,1350,1350,0,-7,12,522,9,13,107,-0.5,0.3,329,125,35,1500,1800,1800,12.3,2.42,31,0.009,1,0,40
[FLT] 361,10,settle,0.003,0.003,0.000,100,0.190,0.182,1,0.000,0.000,1,37,0,2,0.000,0.000,0.000,0,0,1350,1350,1350,1350,0,-12,-7,517,-164,61,-86,-0.5,0.3,329,125,35,1500,1800,1800,12.3,2.42,31,0.012,1,0,40
[FLT] 443,10,settle,0.006,0.006,0.000,100,0.450,0.415,1,0.000,0.000,6,130,0,2,0.000,0.000,0.000,0,0,1350,1350,1350,1350,0,-12,-7,517,-164,61,-86,-0.6,0.1,329,124,35,1500,1800,1800,12.3,2.42,31,0.008,1,0,40
[FLT] 525,10,guard,0.015,0.015,-1.000,0,0.520,0.429,0,0.015,0.060,13,161,0,2,0.000,0.000,0.000,0,0,1350,1350,1350,1350,0,-12,-7,517,-164,61,-86,-0.6,0.1,329,124,35,1500,1800,1800,12.3,2.10,31,0.008,0,2,41
[FLT] 603,10,guard,0.024,0.024,-1.000,0,0.470,0.326,0,0.024,0.110,14,116,0,2,0.000,0.000,0.000,0,0,1351,1351,1351,1351,0,15,-13,525,-25,-8,10,-0.5,0.2,331,124,35,1500,1800,1800,12.3,2.10,31,0.010,0,2,41
[FLT] 684,10,guard,0.026,0.026,-1.000,0,0.460,0.271,0,0.026,0.121,13,70,0,2,0.000,0.000,0.000,0,0,1352,1352,1352,1352,0,15,-13,525,-25,-8,10,-0.5,0.2,331,125,35,1500,1800,1800,12.3,1.97,31,0.011,0,2,41
[FLT] 766,10,guard,0.027,0.027,-1.000,0,0.550,0.318,0,0.027,0.113,11,54,0,2,0.000,0.000,0.000,0,0,1353,1353,1353,1353,0,4,-19,543,111,43,386,-0.5,0.2,331,125,35,1500,1800,1800,12.3,1.97,31,0.012,0,2,41
[FLT] 848,10,guard,0.027,0.027,-1.000,0,0.560,0.278,0,0.027,0.104,10,55,0,2,0.000,0.000,0.000,0,0,1355,1355,1355,1355,0,4,-19,543,111,43,386,0.0,0.2,329,124,35,1500,1800,1800,12.3,1.97,31,0.010,0,2,41
[FLT] 931,10,guard,0.024,0.024,0.000,100,0.600,0.318,1,0.024,0.094,8,41,0,2,0.000,0.000,0.000,0,0,1356,1356,1356,1356,0,4,-19,543,111,43,386,0.0,0.2,329,124,35,1500,1800,1800,12.2,2.17,31,0.012,1,0,40
[FLT] 1008,10,guard,0.023,0.023,0.000,100,0.690,0.364,1,0.023,0.083,7,56,0,2,0.000,0.000,0.000,0,0,1357,1357,1357,1357,0,-6,-11,553,-80,-50,131,0.1,-0.1,325,124,35,1500,1800,1800,12.2,2.17,31,0.010,1,0,40
[FLT] 1090,10,guard,0.019,0.019,0.000,100,0.550,0.175,1,0.019,0.072,6,15,0,2,0.000,0.000,0.000,0,0,1358,1358,1358,1358,0,-6,-11,553,-80,-50,131,0.1,-0.1,325,125,35,1500,1800,1800,12.2,2.82,31,0.014,1,0,40
[FLT] 1171,10,guard,0.012,0.012,0.000,100,0.450,0.048,1,0.012,0.055,4,-14,0,2,0.000,0.000,0.000,0,0,1360,1360,1360,1360,0,24,-3,543,-30,-83,-51,0.1,-0.1,325,125,35,1500,1800,1800,12.2,2.82,31,0.025,1,0,41
[FLT] 1253,10,guard,0.010,0.010,-1.000,0,0.220,-0.193,0,0.010,0.040,3,-87,0,2,0.000,0.000,0.000,0,0,1361,1361,1361,1361,0,24,-3,543,-30,-83,-51,-0.2,-0.3,324,125,35,1500,1800,1800,12.2,2.82,31,0.025,0,2,41
[FLT] 1335,10,guard,-0.006,-0.006,-1.000,0,0.150,-0.240,0,-0.006,0.014,0,-124,0,2,0.000,0.000,0.000,0,0,1362,1362,1362,1362,0,24,-3,543,-30,-83,-51,-0.2,-0.3,324,125,35,1500,1800,1800,12.2,3.00,31,0.039,0,2,41
[FLT] 1413,10,guard,-0.005,-0.005,-1.000,0,0.120,-0.238,0,-0.005,0.005,0,-113,0,2,0.000,0.000,0.000,0,0,1363,1363,1363,1363,0,-20,-5,469,52,56,-230,0.2,0.3,326,125,35,1500,1800,1800,12.2,3.00,31,0.066,0,2,41
[FLT] 1494,10,guard,-0.003,-0.003,-1.000,0,0.130,-0.195,0,-0.003,0.001,0,-85,0,2,0.000,0.000,0.000,0,0,1364,1364,1364,1364,0,-20,-5,469,52,56,-230,0.2,0.3,326,124,35,1500,1800,1800,12.2,2.52,31,0.068,0,2,41
[FLT] 1576,10,guard,-0.003,-0.003,-1.000,0,0.110,-0.190,0,-0.003,0.000,0,-56,0,2,0.000,0.000,0.000,0,0,1366,1366,1366,1366,0,9,14,463,-57,47,-230,0.2,0.3,326,124,35,1500,1800,1800,12.2,2.52,31,0.052,0,2,41
[FLT] 1658,10,guard,-0.012,-0.012,0.000,100,0.160,-0.140,1,-0.012,-0.007,-1,-28,0,2,0.000,0.000,0.000,0,0,1367,1367,1367,1367,0,9,14,463,-57,47,-230,-0.1,1.0,330,124,35,1500,1800,1800,12.2,2.52,31,0.017,1,0,41
[FLT] 1741,10,guard,-0.015,-0.015,0.000,100,0.520,0.231,1,-0.015,-0.009,-1,43,0,2,0.000,0.000,0.000,0,0,1368,1368,1368,1368,0,9,14,463,-57,47,-230,-0.1,1.0,330,124,35,1500,1800,1800,12.1,3.75,31,0.023,1,0,40
[FLT] 1819,10,guard,-0.003,-0.003,0.049,100,0.470,0.147,1,-0.003,-0.005,0,117,0,2,0.000,0.000,0.000,0,0,1369,1369,1369,1369,0,6,-3,425,-66,-435,-95,-0.5,0.3,329,124,35,1500,1800,1800,12.1,3.75,31,0.049,1,0,42
[FLT] 1901,10,guard,0.004,0.004,0.058,100,0.300,-0.040,1,0.004,0.003,1,38,0,2,0.000,0.000,0.000,0,0,1371,1371,1371,1371,0,6,-3,425,-66,-435,-95,-0.5,0.3,329,124,35,1500,1800,1800,12.1,2.62,31,0.058,1,0,40
[FLT] 1982,10,guard,0.003,0.003,-1.000,0,0.200,-0.134,0,0.003,0.008,1,-7,0,2,0.000,0.000,0.000,0,0,1372,1372,1372,1372,0,25,-3,483,13,142,153,-0.5,0.3,329,124,35,1500,1800,1800,12.1,2.62,31,0.058,0,2,40
[FLT] 2064,10,guard,0.001,0.001,-1.000,0,0.120,-0.192,0,0.001,0.002,0,-53,0,2,0.000,0.000,0.000,0,0,1373,1373,1373,1373,0,25,-3,483,13,142,153,-0.1,0.2,327,125,35,1500,1800,1800,12.1,2.62,31,0.043,0,2,41
[FLT] 2146,10,guard,-0.007,-0.007,-1.000,0,0.230,-0.066,0,-0.007,0.001,0,-36,0,2,0.000,0.000,0.000,0,0,1374,1374,1374,1374,0,25,-3,483,13,142,153,-0.1,0.2,327,125,35,1500,1800,1800,12.1,4.32,31,0.016,0,2,40
[FLT] 2223,10,guard,-0.012,-0.012,-1.000,0,0.350,0.046,0,-0.012,-0.007,-1,12,0,2,0.000,0.000,0.000,0,0,1375,1375,1375,1375,0,13,-2,515,99,81,341,-0.3,1.4,323,125,35,1500,1800,1800,12.1,4.32,31,0.027,0,2,40
[FLT] 2305,10,guard,-0.004,-0.004,-1.000,0,0.160,-0.135,0,-0.004,-0.002,0,0,0,2,0.000,0.000,0.000,0,0,1377,1377,1377,1377,0,13,-2,515,99,81,341,-0.3,1.4,323,124,35,1500,1800,1800,12.1,3.70,31,0.068,0,2,40
[FLT] 2386,10,guard,0.008,0.008,0.111,100,0.110,-0.185,1,0.008,0.004,1,-35,0,2,0.000,0.000,0.000,0,0,1378,1378,1378,1378,0,-6,14,637,35,5,207,-0.3,1.4,323,124,35,1500,1800,1800,12.1,3.70,31,0.111,1,0,40
[FLT] 2468,10,guard,0.025,0.025,0.139,100,0.150,-0.115,1,0.025,0.017,3,-26,0,2,0.000,0.000,0.000,0,0,1379,1379,1379,1379,0,-6,14,637,35,5,207,0.2,0.9,321,124,35,1500,1800,1800,12.1,3.70,31,0.139,1,0,41
[FLT] 2550,10,guard,0.050,0.050,0.197,100,0.190,-0.050,1,0.050,0.033,5,-3,0,2,0.000,0.000,0.000,0,0,1380,1380,1380,1380,0,-6,14,637,35,5,207,0.2,0.9,321,124,35,1500,1800,1800,12.0,4.40,31,0.197,1,0,41
[FLT] 2628,10,guard,0.085,0.085,0.265,100,0.200,-0.016,1,0.085,0.062,9,0,0,2,0.000,0.000,0.000,0,0,1381,1381,1381,1381,0,6,33,613,-7,-76,-139,-0.1,-0.1,320,124,35,1500,1800,1800,12.0,4.40,31,0.265,1,0,41
[FLT] 2709,10,guard,0.090,0.090,-1.000,0,0.180,-0.008,0,0.090,0.082,9,0,0,2,0.000,0.000,0.000,0,0,1383,1383,1383,1383,0,6,33,613,-7,-76,-139,-0.1,-0.1,320,125,35,1500,1800,1800,12.0,3.62,31,0.265,0,2,41
[FLT] 2791,10,guard,0.138,0.138,-1.000,0,0.230,0.076,0,0.138,0.118,13,0,0,2,0.000,0.000,0.000,0,0,1384,1384,1384,1384,0,-3,-14,432,35,131,-686,-0.1,-0.1,320,125,35,1500,1800,1800,12.0,3.62,31,0.348,0,2,41
[FLT] 2872,10,guard,0.196,0.196,-1.000,0,0.310,0.187,0,0.196,0.168,19,28,0,2,0.000,0.000,0.000,0,0,1385,1385,1385,1385,0,-3,-14,432,35,131,-686,-0.5,-0.1,328,124,35,1500,1800,1800,12.0,3.62,31,0.428,0,2,40
[FLT] 2955,10,guard,0.255,0.255,-1.000,0,0.360,0.265,0,0.255,0.218,24,41,0,2,0.000,0.000,0.000,0,0,1386,1386,1386,1386,0,-3,-14,432,35,131,-686,-0.5,-0.1,328,124,35,1500,1800,1800,12.0,3.05,31,0.478,0,2,40
[FLT] 3033,10,guard,0.316,0.316,-1.000,0,0.420,0.347,0,0.316,0.263,28,51,0,2,0.000,0.000,0.000,0,0,1387,1387,1387,1387,0,5,11,567,-36,75,-255,-0.7,0.5,334,124,35,1500,1800,1800,12.0,3.05,31,0.526,0,2,41
[FLT] 3114,10,guard,0.377,0.377,0.574,100,0.480,0.407,1,0.377,0.297,33,61,0,2,0.000,0.000,0.000,0,0,1389,1389,1389,1389,0,5,11,567,-36,75,-255,-0.7,0.5,334,125,35,1500,1800,1800,12.0,3.35,31,0.574,1,0,41
[FLT] 3196,10,guard,0.436,0.436,0.622,100,0.510,0.451,1,0.436,0.337,37,60,0,2,0.000,0.000,0.000,0,0,1390,1390,1390,1390,0,9,14,504,54,-63,169,-0.7,0.5,334,125,35,1500,1800,1800,12.0,3.35,31,0.622,1,0,40
[FLT] 3277,10,guard,0.496,0.496,0.673,100,0.570,0.526,1,0.496,0.371,40,60,0,2,0.000,0.000,0.000,0,0,1391,1391,1391,1391,0,9,14,504,54,-63,169,0.5,-0.5,332,124,35,1500,1800,1800,12.0,3.35,31,0.673,1,0,40
[FLT] 3360,10,guard,0.554,0.554,0.715,100,0.590,0.558,1,0.554,0.405,43,53,0,2,0.000,0.000,0.000,0,0,1392,1392,1392,1392,0,9,14,504,54,-63,169,0.5,-0.5,332,124,35,1500,1800,1800,12.1,2.85,31,0.715,1,0,41
[FLT] 3439,10,guard,0.585,0.585,-1.000,0,0.590,0.571,0,0.585,0.415,42,39,0,2,0.000,0.000,0.000,0,0,1394,1394,1394,1394,0,-8,8,450,-22,78,384,0.5,-0.5,332,124,35,1500,1800,1800,12.1,2.85,31,0.715,0,2,41
[FLT] 3521,10,guard,0.637,0.637,-1.000,0,0.640,0.635,0,0.637,0.428,43,31,0,2,0.000,0.000,0.000,0,0,1395,1395,1395,1395,0,-8,8,450,-22,78,384,0.2,-0.3,326,124,35,1500,1800,1800,12.1,2.85,31,0.746,0,2,41
[FLT] 3603,10,guard,0.682,0.682,-1.000,0,0.670,0.673,0,0.682,0.436,44,33,0,2,0.000,0.000,0.000,0,0,1396,1396,1396,1396,0,-8,8,450,-22,78,384,0.2,-0.3,326,124,35,1500,1800,1800,12.1,2.67,31,0.761,0,2,41
[FLT] 3681,10,guard,0.721,0.721,-1.000,0,0.720,0.728,0,0.721,0.439,44,37,0,2,0.000,0.000,0.000,0,0,1397,1397,1397,1397,0,-26,31,517,-1,108,181,0.2,-0.1,323,124,35,1500,1800,1800,12.1,2.67,31,0.765,0,2,41
[FLT] 3763,10,guard,0.753,0.753,-1.000,0,0.750,0.754,0,0.753,0.433,43,41,0,2,0.000,0.000,0.000,0,0,1398,1398,1398,1398,0,-26,31,517,-1,108,181,0.2,-0.1,323,125,35,1500,1800,1800,12.1,3.05,31,0.767,0,2,40
[FLT] 3845,10,guard,0.774,0.774,0.763,100,0.760,0.764,1,0.774,0.415,40,36,0,2,0.000,0.000,0.000,0,0,1395,1395,1395,1395,0,20,52,513,-77,-6,-203,0.2,-0.1,323,125,35,1500,1800,1800,12.1,3.05,31,0.763,1,0,40
[FLT] 3927,10,guard,0.789,0.789,0.760,100,0.760,0.758,1,0.789,0.391,37,23,0,2,0.000,0.000,0.000,0,0,1395,1395,1395,1395,0,20,52,513,-77,-6,-203,-0.1,0.0,324,125,35,1500,1800,1800,12.1,3.05,31,0.760,1,0,41
[FLT] 4009,10,guard,0.798,0.798,0.751,100,0.740,0.733,1,0.798,0.362,34,5,0,2,0.000,0.000,0.000,0,0,1395,1395,1395,1395,0,20,52,513,-77,-6,-203,-0.1,0.0,324,125,35,1500,1800,1800,12.1,2.85,31,0.751,1,0,41
[FLT] 4087,10,guard,0.799,0.799,0.732,100,0.720,0.709,1,0.799,0.329,30,0,0,2,0.000,0.000,0.000,0,0,1395,1395,1395,1395,0,18,10,481,-32,19,-345,-0.1,0.1,328,125,35,1500,1800,1800,12.1,2.85,31,0.732,1,0,40
[FLT] 4168,10,guard,0.819,0.819,-1.000,0,0.720,0.706,0,0.819,0.305,29,0,0,2,0.000,0.000,0.000,0,0,1405,1405,1405,1405,0,18,10,481,-32,19,-345,-0.1,0.1,328,125,35,1500,1800,1800,12.1,2.62,31,0.732,0,2,40
[FLT] 4250,10,guard,0.807,0.807,-1.000,0,0.690,0.673,0,0.807,0.262,24,-1,0,2,0.000,0.000,0.000,0,0,1406,1406,1406,1406,0,1,6,513,6,-7,-155,-0.1,0.1,328,125,35,1500,1800,1800,12.1,2.62,31,0.703,0,2,40
[FLT] 4331,10,guard,0.788,0.788,-1.000,0,0.680,0.656,0,0.788,0.214,19,-6,0,2,0.000,0.000,0.000,0,0,1407,1407,1407,1407,0,1,6,513,6,-7,-155,-0.1,0.1,331,124,35,1500,1800,1800,12.1,2.62,31,0.666,0,2,40
[FLT] 4414,10,guard,0.763,0.763,-1.000,0,0.630,0.601,0,0.763,0.162,14,-17,0,2,0.000,0.000,0.000,0,0,1408,1408,1408,1408,0,1,6,513,6,-7,-155,-0.1,0.1,331,124,35,1500,1800,1800,12.1,2.72,31,0.627,0,2,41
[FLT] 4492,10,guard,0.729,0.729,-1.000,0,0.600,0.564,0,0.729,0.108,8,-25,0,2,0.000,0.000,0.000,0,0,1409,1409,1409,1409,0,-1,-15,487,40,-17,206,0.1,-0.1,329,124,35,1500,1800,1800,12.1,2.72,31,0.576,0,2,41
[FLT] 4573,10,guard,0.688,0.688,0.525,100,0.560,0.524,1,0.688,0.062,2,-29,0,2,0.000,0.000,0.000,0,0,1395,1395,1395,1395,0,-1,-15,487,40,-17,206,0.1,-0.1,329,124,35,1500,1800,1800,12.1,2.55,31,0.525,1,0,40
[FLT] 4655,10,guard,0.639,0.639,0.465,100,0.480,0.439,1,0.639,0.004,-4,-46,0,2,0.000,0.000,0.000,0,0,1395,1395,1395,1395,0,-5,23,459,-47,26,368,0.1,-0.1,329,124,35,1500,1800,1800,12.1,2.55,31,0.465,1,0,40
[FLT] 4737,10,guard,0.583,0.583,0.392,100,0.440,0.396,1,0.583,-0.054,-10,-55,0,2,0.000,0.000,0.000,0,0,1395,1395,1395,1395,0,-5,23,459,-47,26,368,0.2,0.0,326,124,35,1500,1800,1800,12.1,2.55,31,0.392,1,0,41
[FLT] 4819,10,guard,0.520,0.520,0.308,100,0.400,0.350,1,0.520,-0.121,-17,-51,0,2,0.000,0.000,0.000,0,0,1395,1395,1395,1395,0,-5,23,459,-47,26,368,0.2,0.0,326,124,35,1500,1800,1800,12.1,2.77,31,0.308,1,0,40
[FLT] 4896,10,guard,0.503,0.503,-1.000,0,0.320,0.259,0,0.503,-0.159,-18,-60,0,2,0.000,0.000,0.000,0,0,1410,1410,1410,1410,0,50,43,559,19,-40,180,0.3,0.0,322,124,35,1500,1800,1800,12.1,2.77,31,0.308,0,2,40
[FLT] 4977,10,guard,0.430,0.430,-1.000,0,0.270,0.204,0,0.430,-0.222,-25,-66,0,2,0.000,0.000,0.000,0,0,1410,1410,1410,1410,0,50,43,559,19,-40,180,0.3,0.0,322,124,35,1500,1800,1800,12.0,3.55,31,0.236,0,2,41
[FLT] 5059,10,guard,0.353,0.353,-1.000,0,0.250,0.174,0,0.353,-0.283,-31,-58,0,2,0.000,0.000,0.000,0,0,1410,1410,1410,1410,0,7,-9,632,-30,-30,-7,0.3,0.0,322,124,35,1500,1800,1800,12.0,3.55,31,0.156,0,2,41
[FLT] 5141,10,guard,0.276,0.276,-1.000,0,0.160,0.075,0,0.276,-0.344,-37,-63,0,2,0.000,0.000,0.000,0,0,1410,1410,1410,1410,0,7,-9,632,-30,-30,-7,0.2,-0.1,321,125,35,1500,1800,1800,12.0,3.55,31,0.100,0,2,41
[FLT] 5223,10,guard,0.204,0.204,-1.000,0,0.210,0.115,0,0.204,-0.397,-42,-44,0,2,0.000,0.000,0.000,0,0,1410,1410,1410,1410,0,7,-9,632,-30,-30,-7,0.2,-0.1,321,125,35,1500,1800,1800,12.0,3.57,31,0.053,0,2,40
[FLT] 5301,10,guard,0.136,0.136,0.000,100,0.230,0.135,1,0.136,-0.424,-45,-14,0,2,0.000,0.000,0.000,0,0,1395,1395,1395,1395,0,-97,-48,733,-88,1068,74,-0.8,2.6,324,125,35,1500,1800,1800,12.0,3.57,31,0.010,1,0,41
[FLT] 5382,10,guard,0.080,0.080,0.000,100,0.250,0.133,1,0.080,-0.451,-47,-1,0,2,0.000,0.000,0.000,0,0,1395,1395,1395,1395,0,-97,-48,733,-88,1068,74,-0.8,2.6,324,125,35,1500,1800,1800,12.0,3.55,31,0.036,1,0,41
[FLT] 5464,10,guard,0.048,0.048,0.082,100,0.180,0.041,1,0.048,-0.453,-45,-4,0,2,0.000,0.000,0.000,0,0,1395,1395,1395,1395,0,15,33,503,98,-19,-421,-0.8,2.6,324,125,35,1500,1800,1800,12.0,3.55,31,0.082,1,0,40
