[RUN] MISSION type=1 hover=1400 sprintThr=2000 sprintYaw=1700 cutoff=12.00 target=18.30 punchStart=7500 punchThr=1750 kp=0.80 ki=0.00 kd=110.00 tofFull=1.60 tofZero=2.20
[FLT] ms,state,phase,alt,lowRel,tof,tofW,baro,cbaro,src,setpt,fV,usedV,bfV,derV,vsrc,desV,aErr,vErr,P,I,rawThr,thr,minThr,maxThr,sat,accX,accY,accZ,gyroX,gyroY,gyroZ,roll,pitch,yaw,cycle,sensors,rcThr,cmdYaw,rcArm,rcAngle,vbat,amps,diag,tofRaw,tofReadOk,tofReject,tofDt,tofStatus,tofI2c
[FLT] 58,2,sprint,0.021,0.021,-1.000,0,-0.260,-0.260,0,0.000,-0.085,-4,-7,0,2,0.000,0.000,0.000,0,0,2000,2000,2000,2000,0,12,-14,524,-23,142,26,0.9,-2.6,359,124,35,0,1700,0,0,12.2,0.35,15,0.000,0,7,20,2,0
[FLT] 120,2,sprint,0.020,0.020,-1.000,0,-0.260,-0.260,0,0.000,-0.047,-2,0,0,2,0.000,0.000,0.000,0,0,2000,2000,2000,2000,0,56,16,536,-49,21,-125,0.9,-2.6,359,124,35,0,1700,0,0,12.2,0.35,15,0.000,0,7,40,2,0
[FLT] 180,2,sprint,0.043,0.043,-1.000,0,-0.130,-0.130,0,0.000,-0.023,-1,1,0,2,0.000,0.000,0.000,0,0,2000,2000,2000,2000,0,56,16,536,-49,21,-125,1.2,-2.0,3,124,35,0,1700,0,0,12.2,0.35,15,0.000,0,7,40,2,0
[FLT] 240,2,sprint,0.104,0.104,-1.000,0,0.080,0.080,0,0.000,0.019,10,59,69,2,0.000,0.000,0.000,0,0,2000,2000,2000,2000,0,56,16,536,-49,21,-125,1.2,-2.0,3,124,35,0,1700,0,0,12.2,0.35,15,0.000,0,7,60,2,0
[FLT] 300,2,sprint,0.233,0.233,-1.000,0,0.260,0.260,0,0.000,0.183,34,147,69,2,0.000,0.000,0.000,0,0,2000,2000,2000,2000,0,56,16,536,-49,21,-125,1.2,-2.0,3,124,35,0,1700,0,0,11.7,15.37,15,0.000,0,7,40,2,0
[FLT] 360,2,sprint,0.321,0.321,-1.000,0,0.430,0.430,0,0.000,0.321,47,185,69,2,0.000,0.000,0.000,0,0,2000,2000,2000,2000,0,56,16,536,-49,21,-125,1.2,-2.0,3,124,35,0,1700,0,0,11.7,15.37,15,0.000,0,7,60,2,0
[FLT] 420,2,sprint,0.478,0.478,-1.000,0,0.560,0.560,0,0.000,0.533,74,222,158,2,0.000,0.000,0.000,0,0,2000,2000,2000,2000,0,-5,11,801,-139,-21,-3238,1.2,-2.0,3,124,35,0,1700,0,0,11.7,15.37,15,0.000,0,7,40,2,0
[FLT] 478,2,sprint,0.559,0.559,-1.000,0,0.590,0.590,0,0.000,0.721,86,212,158,2,0.000,0.000,0.000,0,0,2000,2000,2000,2000,0,-5,11,801,-139,-21,-3238,-0.3,1.2,41,124,35,0,1700,0,0,11.7,15.37,15,0.000,0,7,40,2,0
[FLT] 538,2,sprint,0.638,0.638,-1.000,0,0.660,0.660,0,0.000,0.873,96,205,158,2,0.000,0.000,0.000,0,0,2000,2000,2000,2000,0,-5,11,801,-139,-21,-3238,-0.3,1.2,41,125,35,0,1700,0,0,11.7,15.37,15,0.000,0,7,40,2,0
[FLT] 600,2,sprint,0.887,0.887,-1.000,0,1.340,1.340,0,0.000,1.055,126,294,282,2,0.000,0.000,0.000,0,0,2000,2000,2000,2000,0,-5,11,801,-139,-21,-3238,-0.3,1.2,41,125,35,0,1700,0,0,11.2,24.10,15,0.000,0,7,40,1,0
[FLT] 658,2,sprint,1.025,1.025,-1.000,0,1.710,1.710,0,0.000,1.314,147,391,282,2,0.000,0.000,0.000,0,0,2000,2000,2000,2000,0,-5,11,801,-139,-21,-3238,-0.3,1.2,41,125,35,0,1700,0,0,11.2,24.10,15,0.000,0,7,20,2,0
[FLT] 720,2,sprint,1.412,1.412,-1.000,0,2.000,2.000,0,0.000,1.651,196,517,282,2,0.000,0.000,0.000,0,0,2000,2000,2000,2000,0,-35,324,720,-270,222,-2007,-0.3,1.2,41,125,35,0,1700,0,0,11.2,24.10,15,0.000,0,7,40,7,0
[FLT] 780,2,sprint,1.842,1.842,-1.000,0,2.680,2.680,0,0.000,2.189,271,577,488,2,0.000,0.000,0.000,0,0,2000,2000,2000,2000,0,-35,324,720,-270,222,-2007,-1.3,2.3,81,125,35,0,1700,0,0,11.2,24.10,15,0.000,0,7,40,2,0
[FLT] 840,2,sprint,2.163,2.163,-1.000,0,2.960,2.960,0,0.000,2.645,312,620,488,2,0.000,0.000,0.000,0,0,2000,2000,2000,2000,0,-35,324,720,-270,222,-2007,-1.3,2.3,81,124,35,0,1700,0,0,11.2,24.10,15,0.000,0,7,60,2,0
[FLT] 900,2,sprint,2.678,2.678,-1.000,0,3.860,3.860,0,0.000,3.285,385,748,488,2,0.000,0.000,0.000,0,0,2000,2000,2000,2000,0,-35,324,720,-270,222,-2007,-1.3,2.3,81,124,35,0,1700,0,0,10.9,23.62,15,0.000,0,7,40,2,0
[FLT] 960,2,sprint,3.094,3.094,-1.000,0,4.200,4.200,0,0.000,3.794,434,819,648,2,0.000,0.000,0.000,0,0,2000,2000,2000,2000,0,-35,324,720,-270,222,-2007,-1.3,2.3,81,124,35,0,1700,0,0,10.9,23.62,15,0.000,0,7,60,1,0
[FLT] 1020,2,sprint,3.637,3.637,-1.000,0,4.330,4.330,0,0.000,4.468,501,763,648,2,0.000,0.000,0.000,0,0,2000,2000,2000,2000,0,41,-66,529,-552,302,-2140,-1.3,2.3,81,124,35,0,1700,0,0,10.9,23.62,15,0.000,0,7,40,2,0
[FLT] 1079,2,sprint,3.916,3.916,-1.000,0,4.390,4.390,0,0.000,4.898,519,672,648,2,0.000,0.000,0.000,0,0,2000,2000,2000,2000,0,41,-66,529,-552,302,-2140,-0.6,-0.6,114,124,35,0,1700,0,0,10.9,23.62,15,0.000,0,7,40,2,0
[FLT] 1140,2,sprint,4.408,4.408,-1.000,0,4.640,4.640,0,0.000,5.159,530,545,466,2,0.000,0.000,0.000,0,0,2000,2000,2000,2000,0,41,-66,529,-552,302,-2140,-0.6,-0.6,114,124,35,0,1700,0,0,10.9,23.62,15,0.000,0,7,40,2,0
[FLT] 1199,2,sprint,4.623,4.623,-1.000,0,4.770,4.770,0,0.000,5.223,525,489,466,2,0.000,0.000,0.000,0,0,2000,2000,2000,2000,0,41,-66,529,-552,302,-2140,-0.6,-0.6,114,124,35,0,1700,0,0,10.8,22.55,15,0.000,0,7,40,2,0
[FLT] 1260,2,sprint,5.060,5.060,-1.000,0,5.480,5.480,0,0.000,5.202,518,516,466,2,0.000,0.000,0.000,0,0,2000,2000,2000,2000,0,41,-66,529,-552,302,-2140,-0.6,-0.6,114,124,35,0,1700,0,0,10.8,22.55,15,0.000,0,7,40,2,0
[FLT] 1319,2,sprint,5.296,5.296,-1.000,0,5.690,5.690,0,0.000,5.198,520,565,466,2,0.000,0.000,0.000,0,0,2000,2000,2000,2000,0,17,-248,576,-205,-206,-2107,-0.6,-0.6,114,124,35,0,1700,0,0,10.8,22.55,15,0.000,0,7,41,2,0
[FLT] 1380,2,sprint,5.774,5.774,-1.000,0,5.990,5.990,0,0.000,5.243,529,573,528,2,0.000,0.000,0.000,0,0,2000,2000,2000,2000,0,17,-248,576,-205,-206,-2107,-0.5,-0.3,154,124,35,0,1700,0,0,10.8,22.55,15,0.000,0,7,40,2,0
[FLT] 1440,2,sprint,6.096,6.096,-1.000,0,6.010,6.010,0,0.000,5.270,528,520,528,2,0.000,0.000,0.000,0,0,2000,2000,2000,2000,0,17,-248,576,-205,-206,-2107,-0.5,-0.3,154,124,35,0,1700,0,0,10.8,22.55,15,0.000,0,7,60,2,0
[FLT] 1500,2,sprint,6.446,6.446,-1.000,0,6.760,6.760,0,0.000,5.279,530,555,528,2,0.000,0.000,0.000,0,0,2000,2000,2000,2000,0,17,-248,576,-205,-206,-2107,-0.5,-0.3,154,124,35,0,1700,0,0,10.7,22.37,15,0.000,0,7,40,2,0
[FLT] 1560,2,sprint,6.803,6.803,-1.000,0,7.100,7.100,0,0.000,5.317,538,615,546,2,0.000,0.000,0.000,0,0,2000,2000,2000,2000,0,17,-248,576,-205,-206,-2107,-0.5,-0.3,154,124,35,0,1700,0,0,10.7,22.37,15,0.000,0,7,59,2,0
[FLT] 1620,2,sprint,7.201,7.201,-1.000,0,7.430,7.430,0,0.000,5.422,552,638,546,2,0.000,0.000,0.000,0,0,2000,2000,2000,2000,0,19,-211,192,391,178,-2339,-0.5,-0.3,154,124,35,0,1700,0,0,10.7,22.37,15,0.000,0,7,40,2,0
[FLT] 1679,2,sprint,7.434,7.434,-1.000,0,7.370,7.370,0,0.000,5.494,554,579,546,2,0.000,0.000,0.000,0,0,2000,2000,2000,2000,0,19,-211,192,391,178,-2339,0.1,-0.4,188,124,35,0,1700,0,0,10.7,22.37,15,0.000,0,7,40,2,0
[FLT] 1740,2,sprint,7.720,7.720,-1.000,0,6.460,6.460,0,0.000,5.375,511,233,140,2,0.000,0.000,0.000,0,0,2000,2000,2000,2000,0,19,-211,192,391,178,-2339,0.1,-0.4,188,124,35,0,1700,0,0,10.7,22.37,15,0.000,0,7,40,2,0
[FLT] 1799,2,sprint,7.736,7.736,-1.000,0,5.930,5.930,0,0.000,4.958,460,-26,140,2,0.000,0.000,0.000,0,0,2000,2000,2000,2000,0,19,-211,192,391,178,-2339,0.1,-0.4,188,124,35,0,1700,0,0,10.7,21.50,15,0.000,0,7,40,2,0
[FLT] 1860,2,sprint,7.705,7.705,-1.000,0,6.290,6.290,0,0.000,4.216,352,-192,140,2,0.000,0.000,0.000,0,0,2000,2000,2000,2000,0,19,-211,192,391,178,-2339,0.1,-0.4,188,124,35,0,1700,0,0,10.7,21.50,15,0.000,0,7,40,2,0
[FLT] 1919,2,sprint,7.730,7.730,-1.000,0,6.910,6.910,0,0.000,3.606,317,-47,140,2,0.000,0.000,0.000,0,0,2000,2000,2000,2000,0,185,-116,512,93,-174,-1926,0.1,-0.4,188,124,35,0,1700,0,0,10.7,21.50,15,0.000,0,7,40,2,0
[FLT] 1980,2,sprint,7.908,7.908,-1.000,0,7.600,7.600,0,0.000,3.203,296,265,264,2,0.000,0.000,0.000,0,0,2000,2000,2000,2000,0,185,-116,512,93,-174,-1926,0.8,-0.9,227,124,35,0,1700,0,0,10.7,21.50,15,0.000,0,7,40,2,0
[FLT] 2039,2,sprint,8.042,8.042,-1.000,0,7.830,7.830,0,0.000,3.069,300,382,264,2,0.000,0.000,0.000,0,0,2000,2000,2000,2000,0,185,-116,512,93,-174,-1926,0.8,-0.9,227,125,35,0,1700,0,0,10.7,21.50,15,0.000,0,7,40,2,0
[FLT] 2100,2,sprint,8.337,8.337,-1.000,0,8.140,8.140,0,0.000,3.103,317,459,264,2,0.000,0.000,0.000,0,0,2000,2000,2000,2000,0,185,-116,512,93,-174,-1926,0.8,-0.9,227,125,35,0,1700,0,0,10.6,21.70,15,0.000,0,7,40,2,0
[FLT] 2159,2,sprint,8.525,8.525,-1.000,0,8.550,8.550,0,0.000,3.233,335,521,428,2,0.000,0.000,0.000,0,0,2000,2000,2000,2000,0,185,-116,512,93,-174,-1926,0.8,-0.9,227,125,35,0,1700,0,0,10.6,21.70,15,0.000,0,7,40,2,0
[FLT] 2220,2,sprint,8.908,8.908,-1.000,0,8.670,8.670,0,0.000,3.471,369,539,428,2,0.000,0.000,0.000,0,0,2000,2000,2000,2000,0,12,1055,561,16,187,-2029,0.8,-0.9,227,125,35,0,1700,0,0,10.6,21.70,15,0.000,0,7,40,2,0
[FLT] 2279,2,sprint,9.074,9.074,-1.000,0,8.610,8.610,0,0.000,3.643,376,456,428,2,0.000,0.000,0.000,0,0,2000,2000,2000,2000,0,12,1055,561,16,187,-2029,-0.2,0.2,265,125,35,0,1700,0,0,10.6,21.70,15,0.000,0,7,40,2,0
[FLT] 2339,2,sprint,9.226,9.226,-1.000,0,8.710,8.710,0,0.000,3.736,379,385,428,2,0.000,0.000,0.000,0,0,2000,2000,2000,2000,0,12,1055,561,16,187,-2029,-0.2,0.2,265,125,35,0,1700,0,0,10.6,21.70,15,0.000,0,7,40,2,0
[FLT] 2401,2,sprint,9.551,9.551,-1.000,0,8.930,8.930,0,0.000,3.711,366,320,299,2,0.000,0.000,0.000,0,0,2000,2000,2000,2000,0,12,1055,561,16,187,-2029,-0.2,0.2,265,125,35,0,1700,0,0,10.5,24.17,15,0.000,0,7,40,2,0
[FLT] 2459,2,sprint,9.599,9.599,-1.000,0,9.060,9.060,0,0.000,3.635,359,309,299,2,0.000,0.000,0.000,0,0,2000,2000,2000,2000,0,12,1055,561,16,187,-2029,-0.2,0.2,265,125,35,0,1700,0,0,10.5,24.17,15,0.000,0,7,20,2,0
[FLT] 2520,2,sprint,9.880,9.880,-1.000,0,8.940,8.940,0,0.000,3.529,341,235,299,2,0.000,0.000,0.000,0,0,2000,2000,2000,2000,0,142,1790,787,-30,1,-2016,-0.2,0.2,265,125,35,0,1700,0,0,10.5,24.17,15,0.000,0,7,40,2,0
[FLT] 2580,2,sprint,9.938,9.938,-1.000,0,9.070,9.070,0,0.000,3.276,303,135,167,2,0.000,0.000,0.000,0,0,2000,2000,2000,2000,0,142,1790,787,-30,1,-2016,-0.6,0.8,303,125,35,0,1700,0,0,10.5,24.17,15,0.000,0,7,40,2,0
[FLT] 2641,2,sprint,10.056,10.056,-1.000,0,9.190,9.190,0,0.000,3.064,285,146,167,2,0.000,0.000,0.000,0,0,2000,2000,2000,2000,0,142,1790,787,-30,1,-2016,-0.6,0.8,303,125,35,0,1700,0,0,10.5,24.17,15,0.000,0,7,60,2,0
[FLT] 2700,2,sprint,10.125,10.125,-1.000,0,9.340,9.340,0,0.000,2.812,260,162,167,2,0.000,0.000,0.000,0,0,2000,2000,2000,2000,0,142,1790,787,-30,1,-2016,-0.6,0.8,303,125,35,0,1700,0,0,10.4,22.82,15,0.000,0,7,40,2,0
[FLT] 2761,2,sprint,10.244,10.244,-1.000,0,9.460,9.460,0,0.000,2.645,250,172,212,2,0.000,0.000,0.000,0,0,2000,2000,2000,2000,0,142,1790,787,-30,1,-2016,-0.6,0.8,303,125,35,0,1700,0,0,10.4,22.82,15,0.000,0,7,60,1,0
[FLT] 2820,2,sprint,10.384,10.384,-1.000,0,10.080,10.080,0,0.000,2.537,249,305,212,2,0.000,0.000,0.000,0,0,2000,2000,2000,2000,0,-66,420,541,-345,746,-1978,-0.6,0.8,303,125,35,0,1700,0,0,10.4,22.82,15,0.000,0,7,40,2,0
[FLT] 2879,2,sprint,10.503,10.503,-1.000,0,10.210,10.210,0,0.000,2.542,256,362,212,2,0.000,0.000,0.000,0,0,2000,2000,2000,2000,0,-66,420,541,-345,746,-1978,-1.2,2.8,339,125,35,0,1700,0,0,10.4,22.82,15,0.000,0,7,40,1,0
[FLT] 2941,2,sprint,10.740,10.740,-1.000,0,10.210,10.210,0,0.000,2.611,268,339,304,2,0.000,0.000,0.000,0,0,2000,2000,2000,2000,0,-66,420,541,-345,746,-1978,-1.2,2.8,339,124,35,0,1700,0,0,10.4,22.82,15,0.000,0,7,40,2,0
[FLT] 3001,2,sprint,10.898,10.898,-1.000,0,10.190,10.190,0,0.000,2.664,271,285,304,2,0.000,0.000,0.000,0,0,2000,2000,2000,2000,0,-66,420,541,-345,746,-1978,-1.2,2.8,339,124,35,0,1700,0,0,10.5,21.22,15,0.000,0,7,60,1,0
[FLT] 3059,2,sprint,10.942,10.942,-1.000,0,10.250,10.250,0,0.000,2.686,270,251,304,2,0.000,0.000,0.000,0,0,2000,2000,2000,2000,0,-66,420,541,-345,746,-1978,-1.2,2.8,339,124,35,0,1700,0,0,10.5,21.22,15,0.000,0,7,20,2,0
[FLT] 3121,2,sprint,11.149,11.149,-1.000,0,10.280,10.280,0,0.000,2.642,256,179,184,2,0.000,0.000,0.000,0,0,2000,2000,2000,2000,0,-11,-57,603,-569,440,-2356,-1.2,2.8,339,124,35,0,1700,0,0,10.5,21.22,15,0.000,0,7,40,2,0
[FLT] 3181,2,sprint,11.221,11.221,-1.000,0,10.440,10.440,0,0.000,2.499,237,151,184,2,0.000,0.000,0.000,0,0,2000,2000,2000,2000,0,-11,-57,603,-569,440,-2356,-0.1,0.9,18,124,35,0,1700,0,0,10.5,21.22,15,0.000,0,7,40,2,0
[FLT] 3241,2,sprint,11.328,11.328,-1.000,0,10.550,10.550,0,0.000,2.390,228,157,184,2,0.000,0.000,0.000,0,0,2000,2000,2000,2000,0,-11,-57,603,-569,440,-2356,-0.1,0.9,18,125,35,0,1700,0,0,10.5,21.22,15,0.000,0,7,60,2,0
[FLT] 3301,2,sprint,11.453,11.453,-1.000,0,11.080,11.080,0,0.000,2.300,227,250,300,2,0.000,0.000,0.000,0,0,2000,2000,2000,2000,0,-11,-57,603,-569,440,-2356,-0.1,0.9,18,125,35,0,1700,0,0,10.4,24.32,15,0.000,0,7,40,2,0
[FLT] 3361,2,sprint,11.624,11.624,-1.000,0,11.400,11.400,0,0.000,2.318,239,341,300,2,0.000,0.000,0.000,0,0,2000,2000,2000,2000,0,-11,-57,603,-569,440,-2356,-0.1,0.9,18,125,35,0,1700,0,0,10.4,24.32,15,0.000,0,7,60,2,0
[FLT] 3421,2,sprint,11.875,11.875,-1.000,0,11.900,11.900,0,0.000,2.503,270,472,300,2,0.000,0.000,0.000,0,0,2000,2000,2000,2000,0,-26,1223,526,-341,487,-1583,-0.1,0.9,18,125,35,0,1700,0,0,10.4,24.32,15,0.000,0,7,40,1,0
[FLT] 3479,3,hold,12.044,12.044,-1.000,0,12.090,12.090,0,18.300,0.765,289,514,300,2,1.200,5.956,-1.690,-102,-0,1298,1375,1100,1700,-1,-26,1223,526,-341,487,-1583,-0.9,2.5,54,125,35,0,1500,0,0,10.4,24.32,15,0.000,0,7,40,2,0
[FLT] 3541,3,hold,12.363,12.363,-1.000,0,12.040,12.040,0,18.300,2.277,316,421,367,2,1.200,5.637,-1.960,-119,-0,1281,1300,1100,1700,-1,-26,1223,526,-341,487,-1583,-0.9,2.5,54,125,35,0,1500,0,0,10.4,24.32,15,0.000,0,7,40,2,0
[FLT] 3599,3,hold,12.513,12.513,-1.000,0,12.270,12.270,0,18.300,2.862,323,399,367,2,1.200,5.487,-2.030,-123,-0,1277,1277,1100,1700,0,-26,1223,526,-341,487,-1583,-0.9,2.5,54,125,35,0,1500,0,0,10.4,20.47,15,0.000,0,7,40,2,0
[FLT] 3661,3,hold,12.829,12.829,-1.000,0,12.770,12.770,0,18.300,3.172,339,438,367,2,1.200,5.171,-2.190,-132,-0,1268,1267,1100,1700,0,-26,1223,526,-341,487,-1583,-0.9,2.5,54,125,35,0,1500,0,0,10.4,20.47,15,0.000,0,7,40,2,0
[FLT] 3719,3,hold,12.990,12.990,-1.000,0,12.770,12.770,0,18.300,3.347,347,434,380,2,1.200,5.010,-2.270,-137,-0,1263,1262,1100,1700,0,2,-82,140,1130,407,435,-0.9,2.5,54,125,35,0,1500,0,0,10.4,20.47,15,0.000,0,7,40,2,0
[FLT] 3781,3,hold,13.238,13.238,-1.000,0,12.320,12.320,0,18.300,3.424,343,244,380,2,1.200,4.762,-2.230,-135,-0,1265,1265,1100,1700,0,2,-82,140,1130,407,435,6.8,2.0,68,125,35,0,1500,0,0,10.4,20.47,15,0.000,0,7,40,2,0
[FLT] 3840,3,hold,13.308,13.308,-1.000,0,12.120,12.120,0,18.300,3.350,327,102,380,2,1.200,4.692,-2.070,-125,-0,1275,1274,1100,1700,0,2,-82,140,1130,407,435,6.8,2.0,68,125,35,0,1500,0,0,10.4,20.47,15,0.000,0,7,40,1,0
[FLT] 3901,3,hold,13.332,13.332,-1.000,0,11.810,11.810,0,18.300,3.045,267,-78,-6,2,1.200,4.668,-1.470,-89,-0,1311,1311,1100,1700,0,2,-82,140,1130,407,435,6.8,2.0,68,125,35,0,1500,0,0,10.9,5.60,15,0.000,0,7,40,7,0
[FLT] 3961,3,hold,13.335,13.335,-1.000,0,11.670,11.670,0,18.300,2.672,223,-156,-6,2,1.200,4.665,-1.030,-62,-0,1338,1337,1100,1700,0,2,-82,140,1130,407,435,6.8,2.0,68,125,35,0,1500,0,0,10.9,5.60,15,0.000,0,7,60,2,0
[FLT] 4021,3,hold,13.168,13.168,-1.000,0,11.440,11.440,0,18.300,2.034,147,-237,-6,2,1.200,4.832,-0.270,-16,-0,1384,1383,1100,1700,0,39,14,139,-70,201,110,6.8,2.0,68,125,35,0,1500,0,0,10.9,5.60,15,0.000,0,7,40,2,0
[FLT] 4079,3,hold,13.092,13.092,-1.000,0,11.340,11.340,0,18.300,1.508,111,-261,-6,2,1.200,4.908,0.090,10,0,1410,1409,1100,1700,0,39,14,139,-70,201,110,-4.0,-2.2,68,125,35,0,1500,0,0,10.9,5.60,15,0.000,0,7,41,1,0
[FLT] 4141,3,hold,12.940,12.940,-1.000,0,11.500,11.500,0,18.300,0.959,52,-191,-91,2,1.200,5.204,0.680,75,0,1475,1474,1100,1700,0,39,14,139,-70,201,110,-4.0,-2.2,68,125,35,0,1500,0,0,10.9,5.60,15,0.000,0,7,41,2,0
[FLT] 4200,3,hold,12.880,12.880,-1.000,0,11.500,11.500,0,18.300,0.589,33,-141,-91,2,1.200,5.321,0.870,96,0,1496,1495,1100,1700,0,39,14,139,-70,201,110,-4.0,-2.2,68,125,35,0,1500,0,0,11.2,4.42,15,0.000,0,7,40,2,0
[FLT] 4261,3,hold,12.773,12.773,-1.000,0,11.450,11.450,0,18.300,0.284,5,-92,-91,2,1.200,5.512,1.150,127,0,1526,1526,1100,1700,0,39,14,139,-70,201,110,-4.0,-2.2,68,125,35,0,1500,0,0,11.2,4.42,15,0.000,0,7,40,2,0
[FLT] 4320,3,hold,12.727,12.727,-1.000,0,11.410,11.410,0,18.300,0.097,-3,-80,-52,2,1.200,5.582,1.230,135,0,1535,1535,1100,1700,0,-6,4,538,65,20,175,-4.0,-2.2,68,125,35,0,1500,0,0,11.2,4.42,15,0.000,0,7,40,2,0
[FLT] 4381,3,hold,12.639,12.639,-1.000,0,11.390,11.390,0,18.300,-0.053,-17,-68,-52,2,1.200,5.712,1.370,151,0,1551,1550,1100,1700,0,-6,4,538,65,20,175,-0.1,-0.5,67,125,35,0,1500,0,0,11.2,4.42,15,0.000,0,7,40,2,0
[FLT] 4440,3,hold,12.602,12.602,-1.000,0,11.430,11.430,0,18.300,-0.146,-21,-47,-52,2,1.200,5.761,1.410,155,0,1555,1555,1100,1700,0,-6,4,538,65,20,175,-0.1,-0.5,67,124,35,0,1500,0,0,11.2,4.42,15,0.000,0,7,40,2,0
[FLT] 4501,3,hold,12.529,12.529,-1.000,0,11.310,11.310,0,18.300,-0.215,-27,-41,-51,2,1.200,5.852,1.470,162,0,1562,1561,1100,1700,0,-6,4,538,65,20,175,-0.1,-0.5,67,124,35,0,1500,0,0,11.2,7.37,15,0.000,0,7,40,2,0
[FLT] 4560,3,hold,12.484,12.484,-1.000,0,11.190,11.190,0,18.300,-0.274,-32,-68,-51,2,1.200,5.912,1.520,167,0,1567,1567,1100,1700,0,-6,4,538,65,20,175,-0.1,-0.5,67,124,35,0,1500,0,0,11.2,7.37,15,0.000,0,7,40,2,0
[FLT] 4621,3,hold,12.389,12.389,-1.000,0,11.230,11.230,0,18.300,-0.347,-41,-80,-51,2,1.200,6.034,1.610,177,0,1577,1577,1100,1700,0,69,-37,619,65,15,99,-0.1,-0.5,67,124,35,0,1500,0,0,11.2,7.37,15,0.000,0,7,40,2,0
[FLT] 4680,3,hold,12.351,12.351,-1.000,0,11.280,11.280,0,18.300,-0.397,-43,-52,-51,2,1.200,6.078,1.630,179,0,1579,1579,1100,1700,0,69,-37,619,65,15,99,0.1,-0.1,66,124,35,0,1500,0,0,11.2,7.37,15,0.000,0,7,40,2,0
[FLT] 4741,3,hold,12.316,12.316,-1.000,0,11.500,11.500,0,18.300,-0.387,-36,17,-8,2,1.200,6.092,1.560,172,0,1572,1571,1100,1700,0,69,-37,619,65,15,99,0.1,-0.1,66,125,35,0,1500,0,0,11.2,7.37,15,0.000,0,7,40,2,0
[FLT] 4800,3,hold,12.312,12.312,-1.000,0,11.530,11.530,0,18.300,-0.341,-30,51,-8,2,1.200,6.078,1.500,165,0,1565,1565,1100,1700,0,69,-37,619,65,15,99,0.1,-0.1,66,125,35,0,1500,0,0,11.2,8.95,15,0.000,0,7,40,2,0
[FLT] 4860,3,hold,12.310,12.310,-1.000,0,11.530,11.530,0,18.300,-0.270,-23,61,-8,2,1.200,6.059,1.430,157,0,1557,1557,1100,1700,0,69,-37,619,65,15,99,0.1,-0.1,66,125,35,0,1500,0,0,11.2,8.95,15,0.000,0,7,40,2,0
[FLT] 4922,3,hold,12.307,12.307,-1.000,0,11.530,11.530,0,18.300,-0.181,-10,51,20,2,1.200,6.023,1.300,143,0,1543,1543,1100,1700,0,69,-9,587,137,-50,-11,0.1,-0.1,66,125,35,0,1500,0,0,11.2,8.95,15,0.000,0,7,40,2,0
[FLT] 4981,3,hold,12.316,12.316,-1.000,0,11.640,11.640,0,18.300,-0.084,0,62,20,2,1.200,5.984,1.200,132,0,1532,1532,1100,1700,0,69,-9,587,137,-50,-11,0.9,-0.3,67,125,35,0,1500,0,0,11.2,8.95,15,0.000,0,7,40,2,0
[FLT] 5042,3,hold,12.327,12.327,-1.000,0,11.700,11.700,0,18.300,-0.015,5,75,20,2,1.200,5.958,1.150,127,0,1526,1526,1100,1700,0,69,-9,587,137,-50,-11,0.9,-0.3,67,124,35,0,1500,0,0,11.2,8.95,15,0.000,0,7,60,2,0
[FLT] 5101,3,hold,12.354,12.354,-1.000,0,11.730,11.730,0,18.300,0.082,17,81,58,2,1.200,5.895,1.030,113,0,1513,1513,1100,1700,0,69,-9,587,137,-50,-11,0.9,-0.3,67,124,35,0,1500,0,0,11.2,8.27,15,0.000,0,7,40,2,0
[FLT] 5162,3,hold,12.372,12.372,-1.000,0,11.730,11.730,0,18.300,0.154,22,70,58,2,1.200,5.862,0.980,108,0,1508,1507,1100,1700,0,69,-9,587,137,-50,-11,0.9,-0.3,67,124,35,0,1500,0,0,11.2,8.27,15,0.000,0,7,60,2,0
[FLT] 5221,3,hold,12.384,12.384,-1.000,0,11.640,11.640,0,18.300,0.224,27,31,58,2,1.200,5.835,0.930,102,0,1502,1502,1100,1700,0,33,-19,582,-26,33,-2,0.9,-0.3,67,124,35,0,1500,0,0,11.2,8.27,15,0.000,0,7,40,2,0
[FLT] 5280,3,hold,12.383,12.383,-1.000,0,11.640,11.640,0,18.300,0.248,26,9,58,2,1.200,5.839,0.940,103,0,1503,1503,1100,1700,0,33,-19,582,-26,33,-2,-0.3,0.1,67,124,35,0,1500,0,0,11.2,8.27,15,0.000,0,7,40,2,0
[FLT] 5342,3,hold,12.373,12.373,-1.000,0,11.690,11.690,0,18.300,0.230,21,2,16,2,1.200,5.864,0.990,109,0,1509,1508,1100,1700,0,33,-19,582,-26,33,-2,-0.3,0.1,67,124,35,0,1500,0,0,11.2,8.27,15,0.000,0,7,40,2,0
[FLT] 5400,3,hold,12.371,12.371,-1.000,0,11.750,11.750,0,18.300,0.213,20,13,16,2,1.200,5.869,1.000,110,0,1510,1510,1100,1700,0,33,-19,582,-26,33,-2,-0.3,0.1,67,124,35,0,1500,0,0,11.3,7.07,15,0.000,0,7,40,2,0
[FLT] 5462,3,hold,12.377,12.377,-1.000,0,11.800,11.800,0,18.300,0.205,20,35,16,2,1.200,5.863,1.000,110,0,1510,1510,1100,1700,0,33,-19,582,-26,33,-2,-0.3,0.1,67,124,35,0,1500,0,0,11.3,7.07,15,0.000,0,7,40,2,0
[FLT] 5520,3,hold,12.387,12.387,-1.000,0,11.850,11.850,0,18.300,0.216,23,45,51,2,1.200,5.844,0.970,107,0,1507,1506,1100,1700,0,93,-15,570,-135,97,42,-0.3,0.1,67,124,35,0,1500,0,0,11.3,7.07,15,0.000,0,7,40,2,0
[FLT] 5582,3,hold,12.413,12.413,-1.000,0,11.870,11.870,0,18.300,0.247,28,52,51,2,1.200,5.803,0.920,101,0,1501,1501,1100,1700,0,93,-15,570,-135,97,42,-0.8,0.0,67,124,35,0,1500,0,0,11.3,7.07,15,0.000,0,7,40,2,0
[FLT] 5642,3,hold,12.429,12.429,-1.000,0,11.870,11.870,0,18.300,0.274,30,45,51,2,1.200,5.781,0.900,99,0,1499,1499,1100,1700,0,93,-15,570,-135,97,42,-0.8,0.0,67,125,35,0,1500,0,0,11.3,7.07,15,0.000,0,7,60,2,0
[FLT] 5702,3,hold,12.444,12.444,-1.000,0,11.910,11.910,0,18.300,0.300,32,41,41,2,1.200,5.760,0.880,97,0,1497,1496,1100,1700,0,93,-15,570,-135,97,42,-0.8,0.0,67,125,35,0,1500,0,0,11.3,7.00,15,0.000,0,7,40,2,0
[FLT] 5762,3,hold,12.461,12.461,-1.000,0,11.950,11.950,0,18.300,0.316,33,42,41,2,1.200,5.740,0.870,96,0,1496,1495,1100,1700,0,93,-15,570,-135,97,42,-0.8,0.0,67,125,35,0,1500,0,0,11.3,7.00,15,0.000,0,7,60,2,0
[FLT] 5822,3,hold,12.480,12.480,-1.000,0,12.010,12.010,0,18.300,0.334,35,51,41,2,1.200,5.715,0.850,94,0,1494,1493,1100,1700,0,34,-36,541,-33,-63,51,-0.8,0.0,67,125,35,0,1500,0,0,11.3,7.00,15,0.000,0,7,40,2,0
[FLT] 5880,3,hold,12.498,12.498,-1.000,0,12.080,12.080,0,18.300,0.354,37,63,41,2,1.200,5.691,0.830,91,0,1491,1491,1100,1700,0,34,-36,541,-33,-63,51,0.0,0.0,68,125,35,0,1500,0,0,11.3,7.00,15,0.000,0,7,40,2,0
[FLT] 5942,3,hold,12.553,12.553,-1.000,0,12.210,12.210,0,18.300,0.405,46,93,77,2,1.200,5.609,0.740,81,0,1481,1481,1100,1700,0,34,-36,541,-33,-63,51,0.0,0.0,68,124,35,0,1500,0,0,11.3,7.00,15,0.000,0,7,40,2,0
[FLT] 6000,3,hold,12.585,12.585,-1.000,0,12.250,12.250,0,18.300,0.459,50,103,77,2,1.200,5.565,0.700,77,0,1477,1477,1100,1700,0,34,-36,541,-33,-63,51,0.0,0.0,68,124,35,0,1500,0,0,11.3,6.60,15,0.000,0,7,40,2,0
[FLT] 6062,3,hold,12.650,12.650,-1.000,0,12.300,12.300,0,18.300,0.530,59,99,77,2,1.200,5.473,0.610,67,0,1467,1467,1100,1700,0,34,-36,541,-33,-63,51,0.0,0.0,68,124,35,0,1500,0,0,11.3,6.60,15,0.000,0,7,40,2,0
[FLT] 6120,3,hold,12.682,12.682,-1.000,0,12.330,12.330,0,18.300,0.582,62,96,82,2,1.200,5.432,0.580,64,0,1464,1463,1100,1700,0,30,-15,527,3,-28,99,0.0,0.0,68,124,35,0,1500,0,0,11.3,6.60,15,0.000,0,7,40,2,0
[FLT] 6182,3,hold,12.744,12.744,-1.000,0,12.390,12.390,0,18.300,0.629,67,90,82,2,1.200,5.355,0.530,58,0,1458,1458,1100,1700,0,30,-15,527,3,-28,99,-0.5,-0.1,67,124,35,0,1500,0,0,11.3,6.60,15,0.000,0,7,40,2,0
[FLT] 6240,3,hold,12.774,12.774,-1.000,0,12.390,12.390,0,18.300,0.659,68,81,82,2,1.200,5.322,0.520,57,0,1457,1457,1100,1700,0,30,-15,527,3,-28,99,-0.5,-0.1,67,124,35,0,1500,0,0,11.3,6.60,15,0.000,0,7,40,2,0
[FLT] 6302,3,hold,12.828,12.828,-1.000,0,12.460,12.460,0,18.300,0.679,69,70,74,2,1.200,5.265,0.510,56,0,1456,1456,1100,1700,0,30,-15,527,3,-28,99,-0.5,-0.1,67,124,35,0,1500,0,0,11.4,5.90,15,0.000,0,7,40,2,0
[FLT] 6360,3,hold,12.857,12.857,-1.000,0,12.540,12.540,0,18.300,0.691,70,79,74,2,1.200,5.233,0.500,55,0,1455,1455,1100,1700,0,30,-15,527,3,-28,99,-0.5,-0.1,67,124,35,0,1500,0,0,11.4,5.90,15,0.000,0,7,40,2,0
[FLT] 6422,3,hold,12.924,12.924,-1.000,0,12.670,12.670,0,18.300,0.709,73,101,74,2,1.200,5.157,0.470,52,0,1452,1451,1100,1700,0,26,-28,530,34,61,-62,-0.5,-0.1,67,124,35,0,1500,0,0,11.4,5.90,15,0.000,0,7,40,2,0
[FLT] 6480,3,hold,12.963,12.963,-1.000,0,12.730,12.730,0,18.300,0.737,76,114,74,2,1.200,5.109,0.440,48,0,1448,1448,1100,1700,0,26,-28,530,34,61,-62,0.2,0.1,67,124,35,0,1500,0,0,11.4,5.90,15,0.000,0,7,40,2,0
[FLT] 6542,3,hold,13.049,13.049,-1.000,0,12.780,12.780,0,18.300,0.787,83,114,108,2,1.200,5.002,0.370,41,0,1441,1440,1100,1700,0,26,-28,530,34,61,-62,0.2,0.1,67,125,35,0,1500,0,0,11.4,5.90,15,0.000,0,7,41,2,0
[FLT] 6602,3,hold,13.106,13.106,-1.000,0,12.800,12.800,0,18.300,0.820,85,102,108,2,1.200,4.939,0.350,39,0,1438,1438,1100,1700,0,26,-28,530,34,61,-62,0.2,0.1,67,125,35,0,1500,0,0,11.4,5.50,15,0.000,0,7,59,1,0
[FLT] 6660,3,hold,13.126,13.126,-1.000,0,12.820,12.820,0,18.300,0.851,87,96,108,2,1.200,4.913,0.330,36,0,1436,1436,1100,1700,0,26,-28,530,34,61,-62,0.2,0.1,67,125,35,0,1500,0,0,11.4,5.50,15,0.000,0,2,20,1,0
[FLT] 6722,3,hold,13.207,13.207,-1.000,0,12.840,12.840,0,18.300,0.857,85,75,82,2,1.200,4.838,0.350,39,0,1438,1438,1100,1700,0,12,-57,552,39,-152,-129,0.2,0.1,67,125,35,0,1500,0,0,11.4,5.50,15,0.000,0,7,40,2,0
[FLT] 6782,3,hold,13.243,13.243,-1.000,0,12.890,12.890,0,18.300,0.840,82,58,82,2,1.200,4.811,0.380,42,0,1442,1441,1100,1700,0,12,-57,552,39,-152,-129,0.1,-1.3,68,125,35,0,1500,0,0,11.4,5.50,15,0.000,0,7,40,2,0
[FLT] 6842,3,hold,13.288,13.288,-1.000,0,12.960,12.960,0,18.300,0.821,80,65,82,2,1.200,4.772,0.400,44,0,1444,1444,1100,1700,0,12,-57,552,39,-152,-129,0.1,-1.3,68,125,35,0,1500,0,0,11.4,5.50,15,0.000,0,7,59,2,0
[FLT] 6902,3,hold,13.341,13.341,-1.000,0,13.110,13.110,0,18.300,0.814,82,93,98,2,1.200,4.713,0.380,42,0,1442,1441,1100,1700,0,12,-57,552,39,-152,-129,0.1,-1.3,68,125,35,0,1500,0,0,11.4,5.32,15,0.000,0,7,40,2,0
[FLT] 6962,3,hold,13.401,13.401,-1.000,0,13.200,13.200,0,18.300,0.827,85,115,98,2,1.200,4.644,0.350,39,0,1438,1438,1100,1700,0,12,-57,552,39,-152,-129,0.1,-1.3,68,125,35,0,1500,0,0,11.4,5.32,15,0.000,0,7,60,2,0
[FLT] 7022,3,hold,13.479,13.479,-1.000,0,13.310,13.310,0,18.300,0.872,92,136,98,2,1.200,4.545,0.280,31,0,1431,1430,1100,1700,0,48,-32,547,158,69,90,0.1,-1.3,68,125,35,0,1500,0,0,11.4,5.32,15,0.000,0,7,40,2,0
[FLT] 7081,3,hold,13.531,13.531,-1.000,0,13.400,13.400,0,18.300,0.922,96,146,98,2,1.200,4.481,0.240,26,0,1426,1426,1100,1700,0,48,-32,547,158,69,90,0.5,0.3,69,125,35,0,1500,0,0,11.4,5.32,15,0.000,0,7,40,2,0
[FLT] 7142,3,hold,13.652,13.652,-1.000,0,13.560,13.560,0,18.300,1.003,108,167,135,2,1.200,4.348,0.120,13,0,1413,1413,1100,1700,0,48,-32,547,158,69,90,0.5,0.3,69,124,35,0,1500,0,0,11.4,5.32,15,0.000,0,7,40,2,0
[FLT] 7201,3,hold,13.718,13.718,-1.000,0,13.670,13.670,0,18.300,1.081,114,180,135,2,1.200,4.282,0.060,7,0,1407,1406,1100,1700,0,48,-32,547,158,69,90,0.5,0.3,69,124,35,0,1500,0,0,11.5,5.17,15,0.000,0,7,40,2,0
[FLT] 7262,3,hold,13.850,13.850,-1.000,0,13.710,13.710,0,18.300,1.165,124,175,135,2,1.200,4.150,-0.040,-2,-0,1398,1397,1100,1700,0,48,-32,547,158,69,90,0.5,0.3,69,124,35,0,1500,0,0,11.5,5.17,15,0.000,0,7,40,2,0
[FLT] 7321,3,hold,13.906,13.906,-1.000,0,13.670,13.670,0,18.300,1.217,125,146,119,2,1.200,4.094,-0.050,-3,-0,1397,1396,1100,1700,0,34,-35,493,-57,-320,-9,0.5,0.3,69,124,35,0,1500,0,0,11.5,5.17,15,0.000,0,7,40,2,0
[FLT] 7382,3,hold,13.989,13.989,-1.000,0,13.630,13.630,0,18.300,1.223,121,80,119,2,1.200,4.011,-0.010,-1,-0,1399,1399,1100,1700,0,34,-35,493,-57,-320,-9,-0.5,-1.1,68,124,35,0,1500,0,0,11.5,5.17,15,0.000,0,7,40,2,0
[FLT] 7443,3,hold,14.044,14.044,-1.000,0,13.630,13.630,0,18.300,1.199,116,55,119,2,1.200,3.956,0.040,4,0,1404,1404,1100,1700,0,34,-35,493,-57,-320,-9,-0.5,-1.1,68,125,35,0,1500,0,0,11.5,5.17,15,0.000,0,7,60,2,0
[FLT] 7502,3,hold,14.062,14.062,-1.000,0,13.600,13.600,0,18.300,1.110,101,18,49,2,1.200,3.938,0.190,21,0,1421,1420,1100,1700,0,34,-35,493,-57,-320,-9,-0.5,-1.1,68,125,35,0,1500,0,0,11.5,4.42,15,0.000,0,7,40,2,0
[FLT] 7563,4,punch,14.092,14.092,-1.000,0,13.610,13.610,0,18.300,1.018,92,8,49,2,0.000,0.000,0.000,0,0,1750,1750,1750,1750,0,34,-35,493,-57,-320,-9,-0.5,-1.1,68,125,35,0,1500,0,0,11.5,4.42,15,0.000,0,7,60,2,0
[FLT] 7622,4,punch,14.092,14.092,-1.000,0,13.630,13.630,0,18.300,0.885,77,4,49,2,0.000,0.000,0.000,0,0,1750,1750,1750,1750,0,22,1,676,66,-204,-59,-0.5,-1.1,68,125,35,0,1500,0,0,11.5,4.42,15,0.000,0,7,40,2,0
[FLT] 7681,4,punch,14.103,14.103,-1.000,0,13.680,13.680,0,18.300,0.783,71,8,49,2,0.000,0.000,0.000,0,0,1750,1750,1750,1750,0,22,1,676,66,-204,-59,0.3,-0.6,68,125,35,0,1500,0,0,11.5,4.42,15,0.000,0,7,40,2,0
[FLT] 7742,4,punch,14.148,14.148,-1.000,0,13.930,13.930,0,18.300,0.717,68,69,65,2,0.000,0.000,0.000,0,0,1750,1750,1750,1750,0,22,1,676,66,-204,-59,0.3,-0.6,68,124,35,0,1500,0,0,11.5,4.42,15,0.000,0,7,40,1,0
[FLT] 7801,4,punch,14.190,14.190,-1.000,0,14.090,14.090,0,18.300,0.708,71,120,65,2,0.000,0.000,0.000,0,0,1750,1750,1750,1750,0,22,1,676,66,-204,-59,0.3,-0.6,68,124,35,0,1500,0,0,11.3,13.40,15,0.000,0,7,40,2,0
[FLT] 7862,4,punch,14.309,14.309,-1.000,0,14.410,14.410,0,18.300,0.774,86,211,65,2,0.000,0.000,0.000,0,0,1750,1750,1750,1750,0,22,1,676,66,-204,-59,0.3,-0.6,68,124,35,0,1500,0,0,11.3,13.40,15,0.000,0,7,40,2,0
[FLT] 7921,4,punch,14.408,14.408,-1.000,0,14.630,14.630,0,18.300,0.917,104,266,229,2,0.000,0.000,0.000,0,0,1750,1750,1750,1750,0,119,131,899,6,-95,-157,0.3,-0.6,68,124,35,0,1500,0,0,11.3,13.40,15,0.000,0,7,40,2,0
[FLT] 7982,4,punch,14.662,14.662,-1.000,0,15.300,15.300,0,18.300,1.192,147,405,229,2,0.000,0.000,0.000,0,0,1750,1750,1750,1750,0,119,131,899,6,-95,-157,0.3,0.0,68,124,35,0,1500,0,0,11.3,13.40,15,0.000,0,7,40,2,0
