[RUN] MISSION type=1 hover=1400 sprintThr=2000 sprintYaw=1700 cutoff=15.00 target=18.30 punchStart=7500 punchThr=2000 punchYaw=1900 kp=0.80 ki=0.00 kd=110.00 tofFull=1.60 tofZero=2.20
[FLT] ms,state,phase,alt,lowRel,tof,tofW,baro,cbaro,src,setpt,fV,usedV,bfV,derV,vsrc,desV,aErr,vErr,P,I,rawThr,thr,minThr,maxThr,sat,accX,accY,accZ,gyroX,gyroY,gyroZ,roll,pitch,yaw,cycle,sensors,rcThr,cmdYaw,rcArm,rcAngle,vbat,amps,diag,tofRaw,tofReadOk,tofReject,tofDt,tofStatus,tofI2c
[FLT] 60,2,sprint,-0.272,-0.272,-1.000,0,-0.040,-0.040,0,0.000,-0.013,0,0,0,2,0.000,0.000,0.000,0,0,2000,2000,2000,2000,0,-17,-24,533,23,-58,0,-3.3,0.5,281,124,35,0,1700,0,0,11.9,0.32,15,0.000,0,2,40,255,0
[FLT] 120,2,sprint,-0.266,-0.266,-1.000,0,-0.030,-0.030,0,0.000,-0.005,0,0,0,2,0.000,0.000,0.000,0,0,2000,2000,2000,2000,0,-3,-51,564,253,-48,-109,-3.3,0.5,281,124,35,0,1700,0,0,11.9,0.32,15,0.000,0,2,20,255,0
[FLT] 180,2,sprint,-0.263,-0.263,-1.000,0,-0.020,-0.020,0,0.000,-0.002,0,0,0,2,0.000,0.000,0.000,0,0,2000,2000,2000,2000,0,-3,-51,564,253,-48,-109,-1.4,0.7,282,124,35,0,1700,0,0,11.9,0.32,15,0.000,0,2,40,255,0
[FLT] 240,2,sprint,-0.248,-0.248,-1.000,0,0.050,0.050,0,0.000,0.009,2,6,20,2,0.000,0.000,0.000,0,0,2000,2000,2000,2000,0,-3,-51,564,253,-48,-109,-1.4,0.7,282,125,35,0,1700,0,0,11.9,0.32,15,0.000,0,2,40,255,0
[FLT] 300,2,sprint,-0.158,-0.158,-1.000,0,0.320,0.320,0,0.000,0.071,15,97,20,2,0.000,0.000,0.000,0,0,2000,2000,2000,2000,0,-3,-51,564,253,-48,-109,-1.4,0.7,282,125,35,0,1700,0,0,11.4,14.30,15,0.000,0,2,40,255,0
[FLT] 360,2,sprint,-0.126,-0.126,-1.000,0,0.250,0.250,0,0.000,0.146,20,100,20,2,0.000,0.000,0.000,0,0,2000,2000,2000,2000,0,-3,-51,564,253,-48,-109,-1.4,0.7,282,125,35,0,1700,0,0,11.4,14.30,15,0.000,0,2,40,255,0
[FLT] 420,2,sprint,-0.103,-0.103,-1.000,0,0.100,0.100,0,0.000,0.199,23,30,22,2,0.000,0.000,0.000,0,0,2000,2000,2000,2000,0,88,-41,580,191,-333,-622,-1.4,0.7,282,125,35,0,1700,0,0,11.4,14.30,15,0.000,0,2,40,255,0
[FLT] 480,2,sprint,-0.097,-0.097,-1.000,0,0.110,0.110,0,0.000,0.219,23,13,22,2,0.000,0.000,0.000,0,0,2000,2000,2000,2000,0,2,41,611,171,-112,15,-1.4,0.7,282,125,35,0,1700,0,0,11.4,14.30,15,0.000,0,2,40,255,0
[FLT] 540,2,sprint,-0.081,-0.081,-1.000,0,0.190,0.190,0,0.000,0.213,21,7,22,2,0.000,0.000,0.000,0,0,2000,2000,2000,2000,0,2,41,611,171,-112,15,4.2,-4.4,283,125,35,0,1700,0,0,11.4,14.30,15,0.000,0,2,40,255,0
[FLT] 600,2,sprint,-0.066,-0.066,-1.000,0,0.250,0.250,0,0.000,0.211,21,23,22,2,0.000,0.000,0.000,0,0,2000,2000,2000,2000,0,2,41,611,171,-112,15,4.2,-4.4,283,124,35,0,1700,0,0,11.4,14.30,15,0.000,0,2,40,255,0
[FLT] 660,2,sprint,-0.041,-0.041,-1.000,0,0.290,0.290,0,0.000,0.220,23,38,51,2,0.000,0.000,0.000,0,0,2000,2000,2000,2000,0,2,41,611,171,-112,15,4.2,-4.4,283,124,35,0,1700,0,0,11.0,17.42,15,0.000,0,2,60,255,0
[FLT] 721,2,sprint,0.003,0.003,-1.000,0,0.390,0.390,0,0.000,0.260,29,59,51,2,0.000,0.000,0.000,0,0,2000,2000,2000,2000,0,2,41,611,171,-112,15,4.2,-4.4,283,124,35,0,1700,0,0,11.0,17.42,15,0.000,0,2,20,255,0
[FLT] 780,2,sprint,0.039,0.039,-1.000,0,0.450,0.450,0,0.000,0.299,33,78,51,2,0.000,0.000,0.000,0,0,2000,2000,2000,2000,0,22,5,858,-580,474,-178,4.2,-4.4,283,124,35,0,1700,0,0,11.0,17.42,15,0.000,0,2,60,255,0
[FLT] 840,2,sprint,0.116,0.116,-1.000,0,0.620,0.620,0,0.000,0.378,44,116,110,2,0.000,0.000,0.000,0,0,2000,2000,2000,2000,0,22,5,858,-580,474,-178,2.5,-2.0,301,124,35,0,1700,0,0,11.0,17.42,15,0.000,0,2,20,255,0
[FLT] 900,2,sprint,0.166,0.166,-1.000,0,0.680,0.680,0,0.000,0.462,51,133,110,2,0.000,0.000,0.000,0,0,2000,2000,2000,2000,0,22,5,858,-580,474,-178,2.5,-2.0,301,125,35,0,1700,0,0,11.0,17.42,15,0.000,0,2,40,255,0
[FLT] 960,2,sprint,0.274,0.274,-1.000,0,0.880,0.880,0,0.000,0.571,65,151,110,2,0.000,0.000,0.000,0,0,2000,2000,2000,2000,0,22,5,858,-580,474,-178,2.5,-2.0,301,125,35,0,1700,0,0,10.8,17.67,15,0.000,0,2,20,255,0
[FLT] 1020,2,sprint,0.349,0.349,-1.000,0,1.140,1.140,0,0.000,0.678,74,204,110,2,0.000,0.000,0.000,0,0,2000,2000,2000,2000,0,22,5,858,-580,474,-178,2.5,-2.0,301,125,35,0,1700,0,0,10.8,17.67,15,0.000,0,2,40,255,0
[FLT] 1080,2,sprint,0.563,0.563,-1.000,0,1.590,1.590,0,0.000,0.903,107,320,216,2,0.000,0.000,0.000,0,0,2000,2000,2000,2000,0,-79,919,887,507,-36,-2292,2.5,-2.0,301,125,35,0,1700,0,0,10.8,17.67,15,0.000,0,2,20,255,0
[FLT] 1141,2,sprint,0.849,0.849,-1.000,0,2.240,2.240,0,0.000,1.191,146,469,216,2,0.000,0.000,0.000,0,0,2000,2000,2000,2000,0,-79,919,887,507,-36,-2292,-1.0,-0.2,343,125,35,0,1700,0,0,10.8,17.67,15,0.000,0,2,40,255,0
[FLT] 1200,2,sprint,1.014,1.014,-1.000,0,2.470,2.470,0,0.000,1.463,167,517,216,2,0.000,0.000,0.000,0,0,2000,2000,2000,2000,0,-79,919,887,507,-36,-2292,-1.0,-0.2,343,125,35,0,1700,0,0,10.8,17.67,15,0.000,0,2,40,255,0
[FLT] 1261,2,sprint,1.515,1.515,-1.000,0,2.960,2.960,0,0.000,2.018,255,594,457,2,0.000,0.000,0.000,0,0,2000,2000,2000,2000,0,-79,919,887,507,-36,-2292,-1.0,-0.2,343,125,35,0,1700,0,0,10.5,24.80,15,0.000,0,2,40,255,0
[FLT] 1321,2,sprint,1.760,1.760,-1.000,0,3.080,3.080,0,0.000,2.530,290,593,457,2,0.000,0.000,0.000,0,0,2000,2000,2000,2000,0,-79,919,887,507,-36,-2292,-1.0,-0.2,343,125,35,0,1700,0,0,10.5,24.80,15,0.000,0,2,40,255,0
[FLT] 1381,2,sprint,2.210,2.210,-1.000,0,3.300,3.300,0,0.000,3.005,339,517,457,2,0.000,0.000,0.000,0,0,2000,2000,2000,2000,0,-154,1070,766,17,-270,-1615,-1.0,-0.2,343,125,35,0,1700,0,0,10.5,24.80,15,0.000,0,2,41,255,0
[FLT] 1440,2,sprint,2.425,2.425,-1.000,0,3.560,3.560,0,0.000,3.331,356,508,435,2,0.000,0.000,0.000,0,0,2000,2000,2000,2000,0,-154,1070,766,17,-270,-1615,-1.3,0.4,20,125,35,0,1700,0,0,10.5,24.80,15,0.000,0,2,39,255,0
[FLT] 1500,2,sprint,2.662,2.662,-1.000,0,4.080,4.080,0,0.000,3.597,375,566,435,2,0.000,0.000,0.000,0,0,2000,2000,2000,2000,0,-154,1070,766,17,-270,-1615,-1.3,0.4,20,124,35,0,1700,0,0,10.5,24.80,15,0.000,0,2,40,255,0
[FLT] 1560,2,sprint,3.138,3.138,-1.000,0,4.290,4.290,0,0.000,3.911,413,596,435,2,0.000,0.000,0.000,0,0,2000,2000,2000,2000,0,-154,1070,766,17,-270,-1615,-1.3,0.4,20,124,35,0,1700,0,0,10.4,23.70,15,0.000,0,2,20,255,0
[FLT] 1620,2,sprint,3.361,3.361,-1.000,0,4.390,4.390,0,0.000,4.127,425,555,435,2,0.000,0.000,0.000,0,0,2000,2000,2000,2000,0,-154,1070,766,17,-270,-1615,-1.3,0.4,20,124,35,0,1700,0,0,10.4,23.70,15,0.000,0,2,40,255,0
[FLT] 1681,2,sprint,3.789,3.789,-1.000,0,4.910,4.910,0,0.000,4.291,440,518,438,2,0.000,0.000,0.000,0,0,2000,2000,2000,2000,0,184,-202,820,-98,120,-2057,-1.3,0.4,20,124,35,0,1700,0,0,10.4,23.70,15,0.000,0,2,20,255,0
[FLT] 1741,2,sprint,4.238,4.238,-1.000,0,5.270,5.270,0,0.000,4.438,456,542,438,2,0.000,0.000,0.000,0,0,2000,2000,2000,2000,0,184,-202,820,-98,120,-2057,-0.2,-0.1,57,124,35,0,1700,0,0,10.4,23.70,15,0.000,0,2,40,255,0
[FLT] 1800,2,sprint,4.460,4.460,-1.000,0,5.470,5.470,0,0.000,4.544,462,541,438,2,0.000,0.000,0.000,0,0,2000,2000,2000,2000,0,184,-202,820,-98,120,-2057,-0.2,-0.1,57,124,35,0,1700,0,0,10.4,23.70,15,0.000,0,2,40,255,0
[FLT] 1861,2,sprint,4.930,4.930,-1.000,0,6.010,6.010,0,0.000,4.676,480,562,533,2,0.000,0.000,0.000,0,0,2000,2000,2000,2000,0,184,-202,820,-98,120,-2057,-0.2,-0.1,57,124,35,0,1700,0,0,10.3,23.97,15,0.000,0,2,39,255,0
[FLT] 1920,2,sprint,5.167,5.167,-1.000,0,6.140,6.140,0,0.000,4.798,489,569,533,2,0.000,0.000,0.000,0,0,2000,2000,2000,2000,0,184,-202,820,-98,120,-2057,-0.2,-0.1,57,124,35,0,1700,0,0,10.3,23.97,15,0.000,0,2,40,255,0
[FLT] 1981,2,sprint,5.608,5.608,-1.000,0,6.270,6.270,0,0.000,4.898,496,489,533,2,0.000,0.000,0.000,0,0,2000,2000,2000,2000,0,188,-1,926,-86,159,-2000,-0.2,-0.1,57,124,35,0,1700,0,0,10.3,23.97,15,0.000,0,2,40,255,0
[FLT] 2041,2,sprint,5.809,5.809,-1.000,0,6.460,6.460,0,0.000,4.923,493,466,464,2,0.000,0.000,0.000,0,0,2000,2000,2000,2000,0,188,-1,926,-86,159,-2000,0.5,0.5,94,124,35,0,1700,0,0,10.3,23.97,15,0.000,0,2,39,255,0
[FLT] 2101,2,sprint,6.232,6.232,-1.000,0,7.070,7.070,0,0.000,4.924,493,515,464,2,0.000,0.000,0.000,0,0,2000,2000,2000,2000,0,188,-1,926,-86,159,-2000,0.5,0.5,94,124,35,0,1700,0,0,10.3,23.97,15,0.000,0,2,41,255,0
[FLT] 2161,2,sprint,6.442,6.442,-1.000,0,7.120,7.120,0,0.000,4.933,494,514,464,2,0.000,0.000,0.000,0,0,2000,2000,2000,2000,0,188,-1,926,-86,159,-2000,0.5,0.5,94,124,35,0,1700,0,0,10.2,23.17,15,0.000,0,2,39,255,0
[FLT] 2220,2,sprint,6.638,6.638,-1.000,0,7.120,7.120,0,0.000,4.918,491,467,464,2,0.000,0.000,0.000,0,0,2000,2000,2000,2000,0,188,-1,926,-86,159,-2000,0.5,0.5,94,124,35,0,1700,0,0,10.2,23.17,15,0.000,0,2,41,255,0
[FLT] 2281,2,sprint,7.001,7.001,-1.000,0,7.370,7.370,0,0.000,4.841,478,414,433,2,0.000,0.000,0.000,0,0,2000,2000,2000,2000,0,-8,2776,205,57,-1283,-1597,0.5,0.5,94,124,35,0,1700,0,0,10.2,23.17,15,0.000,0,2,20,255,0
[FLT] 2341,2,sprint,7.342,7.342,-1.000,0,7.820,7.820,0,0.000,4.725,462,388,433,2,0.000,0.000,0.000,0,0,2000,2000,2000,2000,0,-8,2776,205,57,-1283,-1597,1.4,-5.0,127,124,35,0,1700,0,0,10.2,23.17,15,0.000,0,2,40,255,0
[FLT] 2401,2,sprint,7.528,7.528,-1.000,0,8.130,8.130,0,0.000,4.648,460,436,433,2,0.000,0.000,0.000,0,0,2000,2000,2000,2000,0,-8,2776,205,57,-1283,-1597,1.4,-5.0,127,124,35,0,1700,0,0,10.2,23.17,15,0.000,0,2,40,255,0
[FLT] 2461,2,sprint,7.822,7.822,-1.000,0,8.410,8.410,0,0.000,4.632,463,486,481,2,0.000,0.000,0.000,0,0,2000,2000,2000,2000,0,-8,2776,205,57,-1283,-1597,1.4,-5.0,127,124,35,0,1700,0,0,10.3,18.40,15,0.000,0,2,60,255,0
[FLT] 2521,2,sprint,8.161,8.161,-1.000,0,8.900,8.900,0,0.000,4.703,476,558,481,2,0.000,0.000,0.000,0,0,2000,2000,2000,2000,0,-8,2776,205,57,-1283,-1597,1.4,-5.0,127,124,35,0,1700,0,0,10.3,18.40,15,0.000,0,2,20,255,0
[FLT] 2581,2,sprint,8.480,8.480,-1.000,0,9.130,9.130,0,0.000,4.783,485,579,481,2,0.000,0.000,0.000,0,0,2000,2000,2000,2000,0,11,136,495,211,783,-2189,1.4,-5.0,127,124,35,0,1700,0,0,10.3,18.40,15,0.000,0,2,60,255,0
[FLT] 2641,2,sprint,8.827,8.827,-1.000,0,9.370,9.370,0,0.000,4.900,498,564,504,2,0.000,0.000,0.000,0,0,2000,2000,2000,2000,0,11,136,495,211,783,-2189,-2.4,2.8,168,124,35,0,1700,0,0,10.3,18.40,15,0.000,0,2,20,255,0
[FLT] 2701,2,sprint,9.038,9.038,-1.000,0,9.520,9.520,0,0.000,4.963,500,523,504,2,0.000,0.000,0.000,0,0,2000,2000,2000,2000,0,11,136,495,211,783,-2189,-2.4,2.8,168,124,35,0,1700,0,0,10.3,18.40,15,0.000,0,2,40,255,0
[FLT] 2761,2,sprint,9.454,9.454,-1.000,0,9.940,9.940,0,0.000,4.998,502,510,504,2,0.000,0.000,0.000,0,0,2000,2000,2000,2000,0,11,136,495,211,783,-2189,-2.4,2.8,168,124,35,0,1700,0,0,10.3,19.10,15,0.000,0,2,20,255,0
[FLT] 2821,2,sprint,9.650,9.650,-1.000,0,9.910,9.910,0,0.000,4.999,500,472,504,2,0.000,0.000,0.000,0,0,2000,2000,2000,2000,0,11,136,495,211,783,-2189,-2.4,2.8,168,124,35,0,1700,0,0,10.3,19.10,15,0.000,0,2,40,255,0
[FLT] 2881,2,sprint,9.959,9.959,-1.000,0,10.000,10.000,0,0.000,4.848,473,351,375,2,0.000,0.000,0.000,0,0,2000,2000,2000,2000,0,29,1902,577,-596,414,-2384,-2.4,2.8,168,124,35,0,1700,0,0,10.3,19.10,15,0.000,0,2,20,255,0
[FLT] 2941,2,sprint,10.278,10.278,-1.000,0,10.620,10.620,0,0.000,4.670,453,396,375,2,0.000,0.000,0.000,0,0,2000,2000,2000,2000,0,29,1902,577,-596,414,-2384,0.7,3.0,206,124,35,0,1700,0,0,10.3,19.10,15,0.000,0,2,40,255,0
[FLT] 3001,2,sprint,10.445,10.445,-1.000,0,10.730,10.730,0,0.000,4.557,448,420,375,2,0.000,0.000,0.000,0,0,2000,2000,2000,2000,0,29,1902,577,-596,414,-2384,0.7,3.0,206,125,35,0,1700,0,0,10.3,19.10,15,0.000,0,2,40,255,0
[FLT] 3061,2,sprint,10.766,10.766,-1.000,0,10.720,10.720,0,0.000,4.469,438,361,431,2,0.000,0.000,0.000,0,0,2000,2000,2000,2000,0,29,1902,577,-596,414,-2384,0.7,3.0,206,125,35,0,1700,0,0,10.2,21.12,15,0.000,0,2,40,255,0
[FLT] 3122,2,sprint,10.906,10.906,-1.000,0,10.750,10.750,0,0.000,4.367,429,316,431,2,0.000,0.000,0.000,0,0,2000,2000,2000,2000,0,29,1902,577,-596,414,-2384,0.7,3.0,206,125,35,0,1700,0,0,10.2,21.12,15,0.000,0,2,40,255,0
[FLT] 3182,2,sprint,11.176,11.176,-1.000,0,11.090,11.090,0,0.000,4.228,410,286,431,2,0.000,0.000,0.000,0,0,2000,2000,2000,2000,0,29,1253,513,614,617,-1658,0.7,3.0,206,125,35,0,1700,0,0,10.2,21.12,15,0.000,0,2,40,255,0
[FLT] 3241,2,sprint,11.299,11.299,-1.000,0,11.230,11.230,0,0.000,4.093,399,297,345,2,0.000,0.000,0.000,0,0,2000,2000,2000,2000,0,29,1253,513,614,617,-1658,3.2,-0.4,239,125,35,0,1700,0,0,10.2,21.12,15,0.000,0,2,40,255,0
[FLT] 3301,2,sprint,11.427,11.427,-1.000,0,11.350,11.350,0,0.000,3.977,391,310,345,2,0.000,0.000,0.000,0,0,2000,2000,2000,2000,0,29,1253,513,614,617,-1658,3.2,-0.4,239,125,35,0,1700,0,0,10.2,21.12,15,0.000,0,2,40,255,0
[FLT] 3361,2,sprint,11.676,11.676,-1.000,0,11.550,11.550,0,0.000,3.843,375,306,345,2,0.000,0.000,0.000,0,0,2000,2000,2000,2000,0,29,1253,513,614,617,-1658,3.2,-0.4,239,125,35,0,1700,0,0,10.3,18.47,15,0.000,0,2,20,255,0
[FLT] 3421,2,sprint,11.806,11.806,-1.000,0,11.720,11.720,0,0.000,3.746,369,315,345,2,0.000,0.000,0.000,0,0,2000,2000,2000,2000,0,29,1253,513,614,617,-1658,3.2,-0.4,239,125,35,0,1700,0,0,10.3,18.47,15,0.000,0,2,40,255,0
[FLT] 3481,2,sprint,12.086,12.086,-1.000,0,12.360,12.360,0,0.000,3.696,367,396,339,2,0.000,0.000,0.000,0,0,2000,2000,2000,2000,0,115,132,528,447,-613,-2037,3.2,-0.4,239,125,35,0,1700,0,0,10.3,18.47,15,0.000,0,2,20,255,0
[FLT] 3541,2,sprint,12.464,12.464,-1.000,0,13.020,13.020,0,0.000,3.777,390,581,339,2,0.000,0.000,0.000,0,0,2000,2000,2000,2000,0,115,132,528,447,-613,-2037,0.5,0.4,279,125,35,0,1700,0,0,10.3,18.47,15,0.000,0,2,40,255,0
[FLT] 3601,2,sprint,12.662,12.662,-1.000,0,13.120,13.120,0,0.000,3.914,402,592,339,2,0.000,0.000,0.000,0,0,2000,2000,2000,2000,0,115,132,528,447,-613,-2037,0.5,0.4,279,124,35,0,1700,0,0,10.3,18.47,15,0.000,0,2,40,255,0
[FLT] 3662,2,sprint,13.128,13.128,-1.000,0,13.710,13.710,0,0.000,4.166,441,632,557,2,0.000,0.000,0.000,0,0,2000,2000,2000,2000,0,115,132,528,447,-613,-2037,0.5,0.4,279,124,35,0,1700,0,0,10.1,21.17,15,0.000,0,2,40,255,0
[FLT] 3722,2,sprint,13.356,13.356,-1.000,0,13.740,13.740,0,0.000,4.401,457,613,557,2,0.000,0.000,0.000,0,0,2000,2000,2000,2000,0,115,132,528,447,-613,-2037,0.5,0.4,279,124,35,0,1700,0,0,10.1,21.17,15,0.000,0,2,40,255,0
[FLT] 3782,2,sprint,13.774,13.774,-1.000,0,13.880,13.880,0,0.000,4.593,473,503,557,2,0.000,0.000,0.000,0,0,2000,2000,2000,2000,0,88,35,542,-69,187,-1999,0.5,0.4,279,124,35,0,1700,0,0,10.1,21.17,15,0.000,0,2,41,255,0
[FLT] 3841,2,sprint,13.957,13.957,-1.000,0,14.070,14.070,0,0.000,4.674,472,470,445,2,0.000,0.000,0.000,0,0,2000,2000,2000,2000,0,88,35,542,-69,187,-1999,-0.8,0.5,315,124,35,0,1700,0,0,10.1,21.17,15,0.000,0,2,39,255,0
[FLT] 3901,2,sprint,14.142,14.142,-1.000,0,14.360,14.360,0,0.000,4.697,471,470,445,2,0.000,0.000,0.000,0,0,2000,2000,2000,2000,0,88,35,542,-69,187,-1999,-0.8,0.5,315,125,35,0,1700,0,0,10.1,21.17,15,0.000,0,2,40,255,0
[FLT] 3961,2,sprint,14.502,14.502,-1.000,0,14.540,14.540,0,0.000,4.684,467,452,445,2,0.000,0.000,0.000,0,0,2000,2000,2000,2000,0,88,35,542,-69,187,-1999,-0.8,0.5,315,125,35,0,1700,0,0,10.1,20.75,15,0.000,0,2,20,255,0
[FLT] 4021,2,sprint,14.664,14.664,-1.000,0,14.530,14.530,0,0.000,4.637,461,399,445,2,0.000,0.000,0.000,0,0,2000,2000,2000,2000,0,88,35,542,-69,187,-1999,-0.8,0.5,315,125,35,0,1700,0,0,10.1,20.75,15,0.000,0,2,40,255,0
[FLT] 4082,2,sprint,14.965,14.965,-1.000,0,14.970,14.970,0,0.000,4.515,443,379,388,2,0.000,0.000,0.000,0,0,2000,2000,2000,2000,0,129,663,573,19,-690,-2270,-0.8,0.5,315,125,35,0,1700,0,0,10.1,20.75,15,0.000,0,2,20,255,0
[FLT] 4142,3,hold,15.267,15.267,-1.000,0,15.310,15.310,0,18.300,4.396,430,381,388,2,1.200,2.733,-3.100,-188,-0,1212,1950,1100,1700,-1,129,663,573,19,-690,-2270,0.2,0.1,353,125,35,0,1500,0,0,10.1,20.75,15,0.000,0,2,40,255,0
[FLT] 4201,3,hold,15.427,15.427,-1.000,0,15.530,15.530,0,18.300,4.321,427,411,388,2,1.200,2.573,-3.070,-186,-0,1214,1875,1100,1700,-1,129,663,573,19,-690,-2270,0.2,0.1,353,125,35,0,1500,0,0,10.1,20.75,15,0.000,0,2,40,255,0
[FLT] 4262,3,hold,15.781,15.781,-1.000,0,15.930,15.930,0,18.300,4.307,431,459,453,2,1.200,2.219,-3.110,-188,-0,1212,1800,1100,1700,-1,129,663,573,19,-690,-2270,0.2,0.1,353,125,35,0,1500,0,0,10.1,22.17,15,0.000,0,2,40,255,0
[FLT] 4321,3,hold,15.967,15.967,-1.000,0,16.180,16.180,0,18.300,4.333,436,485,453,2,1.200,2.033,-3.160,-191,-0,1209,1725,1100,1700,-1,129,663,573,19,-690,-2270,0.2,0.1,353,125,35,0,1500,0,0,10.1,22.17,15,0.000,0,2,40,255,0
[FLT] 4382,3,hold,16.341,16.341,-1.000,0,16.370,16.370,0,18.300,4.397,445,488,453,2,1.200,1.659,-3.250,-197,-0,1203,1650,1100,1700,-1,56,4,477,-135,-145,-70,0.2,0.1,353,125,35,0,1500,0,0,10.1,22.17,15,0.000,0,2,39,255,0
[FLT] 4442,3,hold,16.508,16.508,-1.000,0,16.420,16.420,0,18.300,4.421,443,448,404,2,1.193,1.492,-3.237,-196,-0,1204,1575,1100,1700,-1,56,4,477,-135,-145,-70,0.4,-0.3,0,125,35,0,1500,0,0,10.1,22.17,15,0.000,0,2,40,255,0
[FLT] 4502,3,hold,16.825,16.825,-1.000,0,16.700,16.700,0,18.300,4.393,435,396,404,2,0.940,1.175,-3.410,-206,-0,1194,1500,1100,1700,-1,56,4,477,-135,-145,-70,0.4,-0.3,0,125,35,0,1500,0,0,10.1,22.17,15,0.000,0,2,41,255,0
[FLT] 4562,3,hold,16.967,16.967,-1.000,0,16.660,16.660,0,18.300,4.332,428,356,404,2,0.826,1.033,-3.454,-209,-0,1191,1425,1100,1700,-1,56,4,477,-135,-145,-70,0.4,-0.3,0,125,35,0,1500,0,0,10.3,12.97,15,0.000,0,2,39,255,0
[FLT] 4622,3,hold,17.175,17.175,-1.000,0,16.570,16.570,0,18.300,4.169,396,209,256,2,0.660,0.825,-3.300,-200,-0,1200,1350,1100,1700,-1,56,4,477,-135,-145,-70,0.4,-0.3,0,125,35,0,1500,0,0,10.3,12.97,15,0.000,0,2,40,255,0
[FLT] 4682,3,hold,17.250,17.250,-1.000,0,16.600,16.600,0,18.300,3.933,375,169,256,2,0.600,0.750,-3.150,-191,-0,1209,1275,1100,1700,-1,-56,-70,155,-393,249,23,0.4,-0.3,0,125,35,0,1500,0,0,10.3,12.97,15,0.000,0,2,40,255,0
[FLT] 4742,3,hold,17.375,17.375,-1.000,0,16.660,16.660,0,18.300,3.617,332,111,256,2,0.500,0.625,-2.820,-171,-0,1229,1229,1100,1700,0,-56,-70,155,-393,249,23,-0.1,-0.1,0,125,35,0,1500,0,0,10.3,12.97,15,0.000,0,2,40,255,0
[FLT] 4802,3,hold,17.425,17.425,-1.000,0,16.650,16.650,0,18.300,3.330,312,89,256,2,0.460,0.575,-2.660,-161,-0,1239,1239,1100,1700,0,-56,-70,155,-393,249,23,-0.1,-0.1,0,124,35,0,1500,0,0,10.3,12.97,15,0.000,0,2,40,255,0
[FLT] 4862,3,hold,17.513,17.513,-1.000,0,16.630,16.630,0,18.300,3.069,286,63,153,2,0.390,0.487,-2.470,-149,-0,1251,1250,1100,1700,0,-56,-70,155,-393,249,23,-0.1,-0.1,0,124,35,0,1500,0,0,10.7,3.75,15,0.000,0,2,60,255,0
[FLT] 4922,3,hold,17.491,17.491,-1.000,0,16.530,16.530,0,18.300,2.671,239,12,153,2,0.407,0.509,-1.983,-120,-0,1280,1280,1100,1700,0,-56,-70,155,-393,249,23,-0.1,-0.1,0,124,35,0,1500,0,0,10.7,3.75,15,0.000,0,2,20,255,0
[FLT] 4982,3,hold,17.541,17.541,-1.000,0,16.450,16.450,0,18.300,2.375,215,-4,153,2,0.367,0.459,-1.783,-108,-0,1292,1292,1100,1700,0,8,15,113,193,58,-18,-0.1,-0.1,0,124,35,0,1500,0,0,10.7,3.75,15,0.000,0,2,60,255,0
[FLT] 5042,3,hold,17.461,17.461,-1.000,0,16.280,16.280,0,18.300,1.960,166,-72,-3,2,0.431,0.539,-1.229,-74,-0,1326,1325,1100,1700,0,8,15,113,193,58,-18,-0.4,0.3,0,124,35,0,1500,0,0,10.7,3.75,15,0.000,0,2,20,255,0
[FLT] 5102,3,hold,17.424,17.424,-1.000,0,16.260,16.260,0,18.300,1.611,141,-92,-3,2,0.461,0.576,-0.949,-57,-0,1343,1342,1100,1700,0,8,15,113,193,58,-18,-0.4,0.3,0,124,35,0,1500,0,0,10.7,3.75,15,0.000,0,2,40,255,0
[FLT] 5162,3,hold,17.347,17.347,-1.000,0,16.250,16.250,0,18.300,1.228,96,-88,-3,2,0.532,0.665,-0.428,-26,-0,1374,1374,1100,1700,0,8,15,113,193,58,-18,-0.4,0.3,0,124,35,0,1500,0,0,11.0,2.85,15,0.000,0,2,20,255,0
[FLT] 5222,3,hold,17.309,17.309,-1.000,0,16.240,16.240,0,18.300,0.950,79,-77,-3,2,0.603,0.754,-0.187,-11,-0,1389,1388,1100,1700,0,8,15,113,193,58,-18,-0.4,0.3,0,124,35,0,1500,0,0,11.0,2.85,15,0.000,0,2,40,255,0
[FLT] 5282,3,hold,17.235,17.235,-1.000,0,16.250,16.250,0,18.300,0.684,50,-58,-14,2,0.732,0.915,0.232,25,0,1425,1425,1100,1700,0,27,-1,372,-112,755,139,-0.4,0.3,0,124,35,0,1500,0,0,11.0,2.85,15,0.000,0,2,20,255,0
[FLT] 5342,3,hold,17.168,17.168,-1.000,0,16.180,16.180,0,18.300,0.478,31,-41,-14,2,0.831,1.039,0.521,57,0,1457,1457,1100,1700,0,27,-1,372,-112,755,139,0.3,-1.3,359,124,35,0,1500,0,0,11.0,2.85,15,0.000,0,2,40,255,0
[FLT] 5402,3,hold,17.131,17.131,-1.000,0,16.120,16.120,0,18.300,0.332,23,-49,-14,2,0.880,1.100,0.650,72,0,1472,1471,1100,1700,0,27,-1,372,-112,755,139,0.3,-1.3,359,124,35,0,1500,0,0,11.0,2.85,15,0.000,0,2,40,255,0
[FLT] 5462,3,hold,17.030,17.030,-1.000,0,15.970,15.970,0,18.300,0.166,1,-88,-55,2,1.013,1.267,1.003,110,0,1510,1510,1100,1700,0,27,-1,372,-112,755,139,0.3,-1.3,359,124,35,0,1500,0,0,11.0,4.77,15,0.000,0,2,40,255,0
[FLT] 5522,3,hold,16.974,16.974,-1.000,0,15.910,15.910,0,18.300,0.023,-8,-101,-55,2,1.080,1.350,1.160,128,0,1528,1527,1100,1700,0,27,-1,372,-112,755,139,0.3,-1.3,359,124,35,0,1500,0,0,11.0,4.77,15,0.000,0,2,40,255,0
[FLT] 5582,3,hold,16.849,16.849,-1.000,0,15.790,15.790,0,18.300,-0.138,-29,-127,-55,2,1.200,1.538,1.490,164,0,1564,1563,1100,1700,0,14,-16,637,294,-271,82,0.3,-1.3,359,124,35,0,1500,0,0,11.0,4.77,15,0.000,0,2,40,255,0
[FLT] 5642,3,hold,16.782,16.782,-1.000,0,15.760,15.760,0,18.300,-0.283,-39,-126,-91,2,1.200,1.635,1.590,175,0,1575,1574,1100,1700,0,14,-16,637,294,-271,82,1.0,-0.4,0,124,35,0,1500,0,0,11.0,4.77,15,0.000,0,2,40,255,0
[FLT] 5703,3,hold,16.650,16.650,-1.000,0,15.690,15.690,0,18.300,-0.427,-55,-117,-91,2,1.200,1.815,1.750,192,0,1592,1592,1100,1700,0,14,-16,637,294,-271,82,1.0,-0.4,0,124,35,0,1500,0,0,11.0,4.77,15,0.000,0,2,40,255,0
[FLT] 5762,3,hold,16.583,16.583,-1.000,0,15.620,15.620,0,18.300,-0.539,-62,-117,-91,2,1.200,1.903,1.820,200,0,1600,1600,1100,1700,0,14,-16,637,294,-271,82,1.0,-0.4,0,124,35,0,1500,0,0,11.0,7.92,15,0.000,0,2,40,255,0
[FLT] 5822,3,hold,16.513,16.513,-1.000,0,15.510,15.510,0,18.300,-0.635,-69,-130,-91,2,1.200,1.994,1.890,208,0,1608,1607,1100,1700,0,14,-16,637,294,-271,82,1.0,-0.4,0,124,35,0,1500,0,0,11.0,7.92,15,0.000,0,2,40,255,0
[FLT] 5883,3,hold,16.360,16.360,-1.000,0,15.430,15.430,0,18.300,-0.762,-85,-146,-117,2,1.200,2.195,2.050,226,0,1626,1625,1100,1700,0,66,-152,745,75,26,2,1.0,-0.4,0,124,35,0,1500,0,0,11.0,7.92,15,0.000,0,2,20,255,0
[FLT] 5943,3,hold,16.225,16.225,-1.000,0,15.470,15.470,0,18.300,-0.859,-93,-101,-117,2,1.200,2.354,2.130,234,0,1634,1634,1100,1700,0,66,-152,745,75,26,2,0.8,0.7,359,124,35,0,1500,0,0,11.0,7.92,15,0.000,0,2,40,255,0
[FLT] 6002,3,hold,16.167,16.167,-1.000,0,15.480,15.480,0,18.300,-0.908,-94,-81,-117,2,1.200,2.415,2.140,235,0,1635,1635,1100,1700,0,66,-152,745,75,26,2,0.8,0.7,359,125,35,0,1500,0,0,11.0,7.92,15,0.000,0,2,40,255,0
[FLT] 6063,3,hold,16.096,16.096,-1.000,0,15.620,15.620,0,18.300,-0.879,-83,-9,-37,2,1.200,2.453,2.030,223,0,1623,1623,1100,1700,0,66,-152,745,75,26,2,0.8,0.7,359,125,35,0,1500,0,0,10.9,10.27,15,0.000,0,2,40,255,0
[FLT] 6122,3,hold,16.071,16.071,-1.000,0,15.680,15.680,0,18.300,-0.814,-76,1,-37,2,1.200,2.457,1.960,216,0,1616,1615,1100,1700,0,66,-152,745,75,26,2,0.8,0.7,359,125,35,0,1500,0,0,10.9,10.27,15,0.000,0,2,40,255,0
[FLT] 6183,3,hold,16.059,16.059,-1.000,0,15.920,15.920,0,18.300,-0.690,-56,88,-37,2,1.200,2.409,1.760,194,0,1594,1593,1100,1700,0,14,-144,589,6,40,-44,0.8,0.7,359,125,35,0,1500,0,0,10.9,10.27,15,0.000,0,2,40,255,0
[FLT] 6242,3,hold,16.082,16.082,-1.000,0,16.010,16.010,0,18.300,-0.525,-39,121,85,2,1.200,2.335,1.590,175,0,1575,1574,1100,1700,0,14,-144,589,6,40,-44,-1.6,0.5,0,125,35,0,1500,0,0,10.9,10.27,15,0.000,0,2,40,255,0
[FLT] 6303,3,hold,16.168,16.168,-1.000,0,16.350,16.350,0,18.300,-0.269,-2,209,85,2,1.200,2.138,1.220,134,0,1534,1534,1100,1700,0,14,-144,589,6,40,-44,-1.6,0.5,0,125,35,0,1500,0,0,10.9,10.27,15,0.000,0,2,40,255,0
[FLT] 6362,3,hold,16.228,16.228,-1.000,0,16.480,16.480,0,18.300,-0.019,17,242,85,2,1.200,2.021,1.030,113,0,1513,1513,1100,1700,0,14,-144,589,6,40,-44,-1.6,0.5,0,125,35,0,1500,0,0,10.9,9.15,15,0.000,0,2,40,255,0
[FLT] 6423,3,hold,16.385,16.385,-1.000,0,16.690,16.690,0,18.300,0.296,60,287,199,2,1.200,1.735,0.600,66,0,1466,1466,1100,1700,0,14,-144,589,6,40,-44,-1.6,0.5,0,125,35,0,1500,0,0,10.9,9.15,15,0.000,0,2,40,255,0
[FLT] 6482,3,hold,16.472,16.472,-1.000,0,16.740,16.740,0,18.300,0.586,80,283,199,2,1.200,1.588,0.400,44,0,1444,1444,1100,1700,0,-35,-42,443,165,-87,77,-1.6,0.5,0,125,35,0,1500,0,0,10.9,9.15,15,0.000,0,2,40,255,0
[FLT] 6543,3,hold,16.628,16.628,-1.000,0,16.730,16.730,0,18.300,0.860,108,223,199,2,1.097,1.372,0.017,2,0,1402,1401,1100,1700,0,-35,-42,443,165,-87,77,-0.5,0.0,357,125,35,0,1500,0,0,10.9,9.15,15,0.000,0,2,40,255,0
[FLT] 6602,3,hold,16.684,16.684,-1.000,0,16.610,16.610,0,18.300,1.028,114,156,199,2,1.052,1.316,-0.088,-5,-0,1395,1394,1100,1700,0,-35,-42,443,165,-87,77,-0.5,0.0,357,125,35,0,1500,0,0,10.9,9.15,15,0.000,0,2,40,255,0
[FLT] 6663,3,hold,16.712,16.712,-1.000,0,16.380,16.380,0,18.300,1.046,100,8,64,2,1.030,1.288,0.030,3,0,1403,1403,1100,1700,0,-35,-42,443,165,-87,77,-0.5,0.0,357,125,35,0,1500,0,0,11.0,5.67,15,0.000,0,2,39,255,0
[FLT] 6723,3,hold,16.711,16.711,-1.000,0,16.350,16.350,0,18.300,0.973,91,-13,64,2,1.053,1.316,0.143,16,0,1416,1415,1100,1700,0,-35,-42,443,165,-87,77,-0.5,0.0,357,125,35,0,1500,0,0,11.0,5.67,15,0.000,0,2,40,255,0
[FLT] 6783,3,hold,16.720,16.720,-1.000,0,16.360,16.360,0,18.300,0.873,79,-38,64,2,1.075,1.343,0.285,31,0,1431,1431,1100,1700,0,32,-78,338,113,-5,-208,-0.5,0.0,357,125,35,0,1500,0,0,11.0,5.67,15,0.000,0,2,60,255,0
[FLT] 6843,3,hold,16.668,16.668,-1.000,0,16.290,16.290,0,18.300,0.684,55,-55,0,2,1.174,1.467,0.624,69,0,1469,1468,1100,1700,0,32,-78,338,113,-5,-208,0.5,-0.9,0,125,35,0,1500,0,0,11.0,5.67,15,0.000,0,2,20,255,0
[FLT] 6902,3,hold,16.643,16.643,-1.000,0,16.220,16.220,0,18.300,0.530,44,-72,0,2,1.200,1.525,0.760,84,0,1484,1483,1100,1700,0,32,-78,338,113,-5,-208,0.5,-0.9,0,125,35,0,1500,0,0,11.0,5.67,15,0.000,0,2,41,255,0
[FLT] 6963,3,hold,16.579,16.579,-1.000,0,16.120,16.120,0,18.300,0.335,20,-98,0,2,1.200,1.661,1.000,110,0,1510,1510,1100,1700,0,32,-78,338,113,-5,-208,0.5,-0.9,0,125,35,0,1500,0,0,11.0,5.42,15,0.000,0,2,20,255,0
[FLT] 7022,3,hold,16.538,16.538,-1.000,0,16.100,16.100,0,18.300,0.174,8,-99,-62,2,1.200,1.738,1.120,123,0,1523,1523,1100,1700,0,32,-78,338,113,-5,-208,0.5,-0.9,0,125,35,0,1500,0,0,11.0,5.42,15,0.000,0,2,40,255,0
[FLT] 7083,3,hold,16.454,16.454,-1.000,0,16.000,16.000,0,18.300,-0.001,-12,-100,-62,2,1.200,1.882,1.320,145,0,1545,1545,1100,1700,0,-2,-58,576,-126,-146,229,0.5,-0.9,0,125,35,0,1500,0,0,11.0,5.42,15,0.000,0,2,20,255,0
[FLT] 7143,3,hold,16.354,16.354,-1.000,0,15.830,15.830,0,18.300,-0.166,-31,-126,-62,2,1.200,2.039,1.510,166,0,1566,1566,1100,1700,0,-2,-58,576,-126,-146,229,0.7,-0.1,359,125,35,0,1500,0,0,11.0,5.42,15,0.000,0,2,40,255,0
[FLT] 7203,3,hold,16.296,16.296,-1.000,0,15.790,15.790,0,18.300,-0.306,-41,-133,-103,2,1.200,2.127,1.610,177,0,1577,1577,1100,1700,0,-2,-58,576,-126,-146,229,0.7,-0.1,359,125,35,0,1500,0,0,11.0,5.42,15,0.000,0,2,40,255,0
[FLT] 7263,3,hold,16.193,16.193,-1.000,0,15.890,15.890,0,18.300,-0.447,-56,-96,-103,2,1.200,2.275,1.760,194,0,1594,1593,1100,1700,0,-2,-58,576,-126,-146,229,0.7,-0.1,359,125,35,0,1500,0,0,11.0,7.80,15,0.000,0,2,40,255,0
[FLT] 7323,3,hold,16.155,16.155,-1.000,0,15.970,15.970,0,18.300,-0.528,-58,-59,-103,2,1.200,2.319,1.780,196,0,1596,1595,1100,1700,0,-2,-58,576,-126,-146,229,0.7,-0.1,359,125,35,0,1500,0,0,11.0,7.80,15,0.000,0,2,40,255,0
[FLT] 7383,3,hold,16.140,16.140,-1.000,0,16.250,16.250,0,18.300,-0.517,-45,43,46,2,1.200,2.295,1.650,182,0,1582,1581,1100,1700,0,-79,-70,533,-63,-322,-80,0.7,-0.1,359,125,35,0,1500,0,0,11.0,7.80,15,0.000,0,2,40,255,0
[FLT] 7443,3,hold,16.157,16.157,-1.000,0,16.320,16.320,0,18.300,-0.416,-33,84,46,2,1.200,2.242,1.530,168,0,1568,1568,1100,1700,0,-79,-70,533,-63,-322,-80,-1.1,-1.2,358,125,35,0,1500,0,0,11.0,7.80,15,0.000,0,2,40,255,0
[FLT] 7503,3,hold,16.223,16.223,-1.000,0,16.540,16.540,0,18.300,-0.239,-6,157,46,2,1.200,2.095,1.260,139,0,1539,1538,1100,1700,0,-79,-70,533,-63,-322,-80,-1.1,-1.2,358,124,35,0,1500,0,0,11.0,7.80,15,0.000,0,2,40,255,0
[FLT] 7563,4,punch,16.269,16.269,-1.000,0,16.650,16.650,0,18.300,-0.057,8,183,46,2,0.000,0.000,0.000,0,0,2000,2000,2000,2000,0,-79,-70,533,-63,-322,-80,-1.1,-1.2,358,124,35,0,1900,0,0,11.0,8.80,15,0.000,0,2,40,255,0
[FLT] 7623,4,punch,16.405,16.405,-1.000,0,16.830,16.830,0,18.300,0.202,45,227,144,2,0.000,0.000,0.000,0,0,2000,2000,2000,2000,0,-79,-70,533,-63,-322,-80,-1.1,-1.2,358,124,35,0,1900,0,0,11.0,8.80,15,0.000,0,2,40,255,0
[FLT] 7683,4,punch,16.471,16.471,-1.000,0,16.790,16.790,0,18.300,0.433,60,213,144,2,0.000,0.000,0.000,0,0,2000,2000,2000,2000,0,71,-56,798,-565,137,-1031,-1.1,-1.2,358,124,35,0,1900,0,0,11.0,8.80,15,0.000,0,2,40,255,0
[FLT] 7743,4,punch,16.560,16.560,-1.000,0,16.570,16.570,0,18.300,0.614,74,93,144,2,0.000,0.000,0.000,0,0,2000,2000,2000,2000,0,71,-56,798,-565,137,-1031,-4.9,3.1,10,124,35,0,1900,0,0,11.0,8.80,15,0.000,0,2,40,255,0
[FLT] 7803,4,punch,16.569,16.569,-1.000,0,16.530,16.530,0,18.300,0.670,69,35,23,2,0.000,0.000,0.000,0,0,2000,2000,2000,2000,0,71,-56,798,-565,137,-1031,-4.9,3.1,10,125,35,0,1900,0,0,11.0,8.80,15,0.000,0,2,40,255,0
[FLT] 7863,4,punch,16.584,16.584,-1.000,0,16.540,16.540,0,18.300,0.648,62,2,23,2,0.000,0.000,0.000,0,0,2000,2000,2000,2000,0,71,-56,798,-565,137,-1031,-4.9,3.1,10,125,35,0,1900,0,0,10.8,14.77,15,0.000,0,2,60,255,0
[FLT] 7924,4,punch,16.581,16.581,-1.000,0,16.660,16.660,0,18.300,0.566,51,10,23,2,0.000,0.000,0.000,0,0,2000,2000,2000,2000,0,71,-56,798,-565,137,-1031,-4.9,3.1,10,125,35,0,1900,0,0,10.8,14.77,15,0.000,0,2,20,255,0
[FLT] 7983,4,punch,16.602,16.602,-1.000,0,16.680,16.680,0,18.300,0.516,48,21,50,2,0.000,0.000,0.000,0,0,2000,2000,2000,2000,0,16,47,563,-275,342,-3885,-4.9,3.1,10,125,35,0,1900,0,0,10.8,14.77,15,0.000,0,2,60,255,0
